Subject_code,trial_code,foreperiod,predictability,difficulty,response,reaction_time,correct_response,stimulus,question,confidence,confidence_RT,score,RTCorrect,ConfCorrect,TP,TN,FP,FN,RT_TP,xpos,ypos,perfGrp
1,66,1.4,3,4,2,0.615240135000022,2,66,8,4,1.81583714600038,1,0.615240135000022,4,0,1,0,0,NaN,NaN,NaN,1
1,5,0.65,1,4,1,0.46263552200071,1,5,3,4,1.11446971700025,1,0.46263552200071,4,1,0,0,0,0.46263552200071,-1,1.22464679914735e-16,1
1,158,0.65,1,8,2,0.781701229000646,2,14,16,2,2.67653510699984,1,0.781701229000646,2,0,1,0,0,NaN,NaN,NaN,1
1,222,0.65,1,10,2,2.28528167999957,2,6,19,2,0.79387312200015,1,2.28528167999957,2,0,1,0,0,NaN,NaN,NaN,1
1,227,0.65,1,10,2,1.0858710399998,1,11,8,1,0.415521714000533,0,NaN,NaN,0,0,0,1,NaN,-0.309016994374948,-0.951056516295154,1
1,106,1.4,1,6,2,1.15354713300076,2,34,10,3,1.51239145499949,1,1.15354713300076,3,0,1,0,0,NaN,NaN,NaN,1
1,179,1.4,1,8,2,0.957188362000124,2,35,16,3,0.801618100000269,1,0.957188362000124,3,0,1,0,0,NaN,NaN,NaN,1
1,54,1.4,3,4,1,0.615748828000505,1,54,2,4,0.975290952999785,1,0.615748828000505,4,1,0,0,0,0.615748828000505,6.12323399573677e-17,1,1
1,88,0.65,1,6,2,1.73322469300001,2,16,7,3,0.539399732000675,1,1.73322469300001,3,0,1,0,0,NaN,NaN,NaN,1
1,226,0.65,1,10,2,3.38347437099947,1,10,1,2,1.0908866360005,0,NaN,NaN,0,0,0,1,NaN,1,0,1
1,218,0.65,1,10,2,1.03332645699993,2,2,20,3,0.23634363400015,1,1.03332645699993,3,0,1,0,0,NaN,NaN,NaN,1
1,225,0.65,1,10,2,0.763990138999361,2,9,15,2,1.60224751599981,1,0.763990138999361,2,0,1,0,0,NaN,NaN,NaN,1
1,10,0.65,1,4,2,0.506613401000322,2,10,8,4,0.305685990000711,1,0.506613401000322,4,0,1,0,0,NaN,NaN,NaN,1
1,277,1.4,3,10,2,1.50440620400059,1,61,4,2,0.269993277999674,0,NaN,NaN,0,0,0,1,NaN,-0.309016994374947,0.951056516295154,1
1,93,1.4,1,6,2,0.744314529999428,1,21,2,3,0.527546713999982,0,NaN,NaN,0,0,0,1,NaN,0.5,0.866025403784439,1
1,278,0.65,3,10,2,1.35562939200008,2,62,13,2,0.128235016999497,1,1.35562939200008,2,0,1,0,0,NaN,NaN,NaN,1
1,272,0.65,3,10,1,0.519687494000209,1,56,10,4,0.37769953499992,1,0.519687494000209,4,1,0,0,0,0.519687494000209,0.809016994374947,-0.587785252292473,1
1,165,1.4,1,8,2,1.76670506799928,1,21,4,2,0.80686349700045,0,NaN,NaN,0,0,0,1,NaN,-0.707106781186547,0.707106781186548,1
1,157,0.65,1,8,2,1.78299463099938,2,13,14,3,0.550175370999568,1,1.78299463099938,3,0,1,0,0,NaN,NaN,NaN,1
1,231,0.65,1,10,2,1.7572690979996,2,15,14,100,4.00405965299979,1,1.7572690979996,100,0,1,0,0,NaN,NaN,NaN,1
1,244,1.4,1,10,2,0.687113404999764,1,28,5,2,0.719629291999809,0,NaN,NaN,0,0,0,1,NaN,-0.809016994374947,0.587785252292473,1
1,82,0.65,1,6,2,2.67278791900026,1,10,3,2,1.29687573499996,0,NaN,NaN,0,0,0,1,NaN,-0.5,0.866025403784439,1
1,269,1.4,3,10,1,0.68655298900012,2,53,11,3,1.41366239199942,0,NaN,NaN,0,0,1,0,NaN,NaN,NaN,1
1,75,0.65,1,6,2,1.06325608499992,2,3,9,3,2.76940646999992,1,1.06325608499992,3,0,1,0,0,NaN,NaN,NaN,1
1,56,0.65,3,4,2,0.742153591000715,2,56,8,4,0.461453808999977,1,0.742153591000715,4,0,1,0,0,NaN,NaN,NaN,1
1,107,1.4,1,6,2,0.630012007999539,2,35,8,3,0.442440067999996,1,0.630012007999539,3,0,1,0,0,NaN,NaN,NaN,1
1,164,1.4,1,8,2,1.3890896490002,2,20,11,2,0.231627530999504,1,1.3890896490002,2,0,1,0,0,NaN,NaN,NaN,1
1,146,0.65,1,8,2,0.890490889999455,2,2,9,2,0.743570929000271,1,0.890490889999455,2,0,1,0,0,NaN,NaN,NaN,1
1,136,0.65,3,6,2,1.43287307499941,1,64,3,3,0.420460274000106,0,NaN,NaN,0,0,0,1,NaN,-0.5,0.866025403784439,1
1,76,0.65,1,6,1,0.49322949100042,1,4,5,4,1.02931202499985,1,0.49322949100042,4,1,0,0,0,0.49322949100042,-0.5,-0.866025403784438,1
1,92,1.4,1,6,2,0.565882464999959,2,20,7,3,0.531496339000114,1,0.565882464999959,3,0,1,0,0,NaN,NaN,NaN,1
1,192,1.4,3,8,1,2.23884508500032,1,48,1,2,0.985435981000592,1,2.23884508500032,2,1,0,0,0,2.23884508500032,1,0,1
1,125,1.4,3,6,1,0.89994113099965,1,53,1,3,0.523139060999711,1,0.89994113099965,3,1,0,0,0,0.89994113099965,1,0,1
1,126,1.4,3,6,2,0.94998996600043,2,54,9,3,0.919950774000426,1,0.94998996600043,3,0,1,0,0,NaN,NaN,NaN,1
1,215,0.65,3,8,2,1.04995033299929,2,71,11,3,1.52865363500041,1,1.04995033299929,3,0,1,0,0,NaN,NaN,NaN,1
1,252,1.4,1,10,1,0.582681416000014,1,36,7,4,0.365446159999919,1,0.582681416000014,4,1,0,0,0,0.582681416000014,-0.809016994374947,-0.587785252292473,1
1,41,1.4,3,4,2,0.563676891999421,2,41,7,4,0.289288951999879,1,0.563676891999421,4,0,1,0,0,NaN,NaN,NaN,1
1,30,1.4,1,4,2,0.531810316999326,2,30,6,4,1.79977722800049,1,0.531810316999326,4,0,1,0,0,NaN,NaN,NaN,1
1,148,0.65,1,8,2,0.833692438999606,2,4,12,3,0.355849516999115,1,0.833692438999606,3,0,1,0,0,NaN,NaN,NaN,1
1,94,1.4,1,6,1,1.60029114500048,1,22,1,2,0.306815130000359,1,1.60029114500048,2,1,0,0,0,1.60029114500048,1,0,1
1,171,1.4,1,8,2,0.954052063000745,1,27,7,2,0.326235868999902,0,NaN,NaN,0,0,0,1,NaN,-1.83697019872103e-16,-1,1
1,205,1.4,3,8,1,0.601936750999812,1,61,8,3,0.404588626999612,1,0.601936750999812,3,1,0,0,0,0.601936750999812,0.707106781186547,-0.707106781186548,1
1,160,0.65,1,8,2,1.25593572000071,2,16,11,3,0.940281877999951,1,1.25593572000071,3,0,1,0,0,NaN,NaN,NaN,1
1,217,0.65,1,10,2,0.866622510000525,2,1,11,2,0.610560803000226,1,0.866622510000525,2,0,1,0,0,NaN,NaN,NaN,1
1,25,1.4,1,4,1,0.620024707999619,1,25,2,3,0.893989487999534,1,0.620024707999619,3,1,0,0,0,0.620024707999619,6.12323399573677e-17,1,1
1,8,0.65,1,4,2,0.519239084000219,2,8,8,4,0.28003007999996,1,0.519239084000219,4,0,1,0,0,NaN,NaN,NaN,1
1,198,1.4,3,8,2,1.15212885300025,2,54,13,3,0.37550254100006,1,1.15212885300025,3,0,1,0,0,NaN,NaN,NaN,1
1,221,0.65,1,10,2,1.30589802900067,1,5,5,2,0.269740171999729,0,NaN,NaN,0,0,0,1,NaN,-0.809016994374947,0.587785252292473,1
1,74,0.65,1,6,2,0.706590871999651,2,2,8,3,0.55845975199918,1,0.706590871999651,3,0,1,0,0,NaN,NaN,NaN,1
1,63,0.65,3,4,2,0.732135403000939,2,63,7,4,0.379974568000762,1,0.732135403000939,4,0,1,0,0,NaN,NaN,NaN,1
1,241,1.4,1,10,1,2.72055459100011,1,25,4,2,0.528122569001425,1,2.72055459100011,2,1,0,0,0,2.72055459100011,-0.309016994374947,0.951056516295154,1
1,154,0.65,1,8,2,0.982745678000356,1,10,6,2,0.177134490999379,0,NaN,NaN,0,0,0,1,NaN,-0.707106781186548,-0.707106781186547,1
1,9,0.65,1,4,2,0.956988855999953,2,9,5,4,0.628715200000443,1,0.956988855999953,4,0,1,0,0,NaN,NaN,NaN,1
1,186,0.65,3,8,1,0.557773267000812,1,42,1,4,0.274610219001261,1,0.557773267000812,4,1,0,0,0,0.557773267000812,1,0,1
1,238,1.4,1,10,2,2.15814337400116,1,22,8,2,0.226186583999151,0,NaN,NaN,0,0,0,1,NaN,-0.309016994374948,-0.951056516295154,1
1,235,1.4,1,10,1,0.387190813000416,1,19,10,4,0.348885851000887,1,0.387190813000416,4,1,0,0,0,0.387190813000416,0.809016994374947,-0.587785252292473,1
1,219,0.65,1,10,1,0.471621671998946,1,3,9,3,0.283931486999791,1,0.471621671998946,3,1,0,0,0,0.471621671998946,0.309016994374947,-0.951056516295154,1
1,62,0.65,3,4,1,0.464688991000003,1,62,3,3,0.622795785999188,1,0.464688991000003,3,1,0,0,0,0.464688991000003,-1,1.22464679914735e-16,1
1,51,1.4,3,4,1,0.353530700000192,1,51,1,4,0.30177939799978,1,0.353530700000192,4,1,0,0,0,0.353530700000192,1,0,1
1,232,0.65,1,10,2,0.972934686000372,2,16,20,2,0.367411831999561,1,0.972934686000372,2,0,1,0,0,NaN,NaN,NaN,1
1,33,1.4,1,4,2,0.609458705001089,2,33,5,4,0.415581789000498,1,0.609458705001089,4,0,1,0,0,NaN,NaN,NaN,1
1,206,0.65,3,8,1,0.551889607999328,1,62,1,4,0.444310727998527,1,0.551889607999328,4,1,0,0,0,0.551889607999328,1,0,1
1,264,1.4,3,10,1,0.425063908000084,1,48,6,4,0.485767420999764,1,0.425063908000084,4,1,0,0,0,0.425063908000084,-1,1.22464679914735e-16,1
1,245,1.4,1,10,2,0.893896977000622,1,29,4,2,0.202694568999505,0,NaN,NaN,0,0,0,1,NaN,-0.309016994374947,0.951056516295154,1
1,133,1.4,3,6,1,0.918993096000122,1,61,3,2,0.590296300999398,1,0.918993096000122,2,1,0,0,0,0.918993096000122,-0.5,0.866025403784439,1
1,7,0.65,1,4,2,0.517087381000238,2,7,6,4,0.251503038998635,1,0.517087381000238,4,0,1,0,0,NaN,NaN,NaN,1
1,97,1.4,1,6,2,3.06739557999936,2,25,7,2,0.223391128000003,1,3.06739557999936,2,0,1,0,0,NaN,NaN,NaN,1
1,40,0.65,3,4,2,0.427557891998731,2,40,8,4,0.269113293001283,1,0.427557891998731,4,0,1,0,0,NaN,NaN,NaN,1
1,37,0.65,3,4,2,0.393262821000462,2,37,5,4,0.159900611999547,1,0.393262821000462,4,0,1,0,0,NaN,NaN,NaN,1
1,29,1.4,1,4,1,0.458380887999738,1,29,1,4,0.148577429001307,1,0.458380887999738,4,1,0,0,0,0.458380887999738,1,0,1
1,109,0.65,3,6,2,0.554460072999063,2,37,9,3,0.453428042001178,1,0.554460072999063,3,0,1,0,0,NaN,NaN,NaN,1
1,77,0.65,1,6,2,0.722106216999236,2,5,10,3,0.484825159999673,1,0.722106216999236,3,0,1,0,0,NaN,NaN,NaN,1
1,48,1.4,3,4,2,0.528981039999053,2,48,6,4,0.877150272999643,1,0.528981039999053,4,0,1,0,0,NaN,NaN,NaN,1
1,86,0.65,1,6,2,0.58919494499969,2,14,10,3,0.364584045999436,1,0.58919494499969,3,0,1,0,0,NaN,NaN,NaN,1
1,242,1.4,1,10,2,1.75870217999909,1,26,2,3,0.144602309001129,0,NaN,NaN,0,0,0,1,NaN,0.809016994374947,0.587785252292473,1
1,6,0.65,1,4,2,0.568851629999699,2,6,8,4,0.150654121000116,1,0.568851629999699,4,0,1,0,0,NaN,NaN,NaN,1
1,195,1.4,3,8,1,0.564617146999808,1,51,8,3,0.612033976000021,1,0.564617146999808,3,1,0,0,0,0.564617146999808,0.707106781186547,-0.707106781186548,1
1,26,1.4,1,4,1,0.335047950000444,1,26,3,4,0.261617530999501,1,0.335047950000444,4,1,0,0,0,0.335047950000444,-1,1.22464679914735e-16,1
1,145,0.65,1,8,1,0.700278539999999,1,1,3,4,0.288443004999863,1,0.700278539999999,4,1,0,0,0,0.700278539999999,6.12323399573677e-17,1,1
1,270,1.4,3,10,2,1.02362570999867,1,54,9,2,0.537196916000539,0,NaN,NaN,0,0,0,1,NaN,0.309016994374947,-0.951056516295154,1
1,84,0.65,1,6,2,0.916608008999901,2,12,10,3,1.10225487299977,1,0.916608008999901,3,0,1,0,0,NaN,NaN,NaN,1
1,67,1.4,3,4,1,0.416978150000432,1,67,4,4,0.256590209000933,1,0.416978150000432,4,1,0,0,0,0.416978150000432,-1.83697019872103e-16,-1,1
1,42,0.65,3,4,1,0.38154283699987,1,42,2,4,0.244134077000126,1,0.38154283699987,4,1,0,0,0,0.38154283699987,6.12323399573677e-17,1,1
1,177,1.4,1,8,2,1.92897755499871,2,33,16,2,0.697372832000838,1,1.92897755499871,2,0,1,0,0,NaN,NaN,NaN,1
1,87,0.65,1,6,1,1.28304930400009,1,15,6,3,0.266402941000706,1,1.28304930400009,3,1,0,0,0,1.28304930400009,0.5,-0.866025403784439,1
1,152,0.65,1,8,1,0.264937760999601,1,8,8,4,0.67170156300017,1,0.264937760999601,4,1,0,0,0,0.264937760999601,0.707106781186547,-0.707106781186548,1
1,170,1.4,1,8,2,1.35199283899965,2,26,16,2,0.364289753999401,1,1.35199283899965,2,0,1,0,0,NaN,NaN,NaN,1
1,103,1.4,1,6,2,0.557170084999598,2,31,11,4,0.396173749999434,1,0.557170084999598,4,0,1,0,0,NaN,NaN,NaN,1
1,22,1.4,1,4,2,0.422363371000756,2,22,7,4,0.204789633000473,1,0.422363371000756,4,0,1,0,0,NaN,NaN,NaN,1
1,138,1.4,3,6,2,0.691365893999318,2,66,8,3,0.328948893999041,1,0.691365893999318,3,0,1,0,0,NaN,NaN,NaN,1
1,287,0.65,3,10,2,1.1723885499996,1,71,3,2,0.139378052999746,0,NaN,NaN,0,0,0,1,NaN,0.309016994374947,0.951056516295154,1
1,19,1.4,1,4,1,0.856272864999482,1,19,3,4,0.469546897000328,1,0.856272864999482,4,1,0,0,0,0.856272864999482,-1,1.22464679914735e-16,1
1,81,0.65,1,6,1,0.407342937000067,1,9,2,4,0.230372447000263,1,0.407342937000067,4,1,0,0,0,0.407342937000067,0.5,0.866025403784439,1
1,224,0.65,1,10,2,1.1684809060007,1,8,3,2,0.178336121000029,0,NaN,NaN,0,0,0,1,NaN,0.309016994374947,0.951056516295154,1
1,209,0.65,3,8,2,1.4949615459991,2,65,14,2,0.13734113999999,1,1.4949615459991,2,0,1,0,0,NaN,NaN,NaN,1
1,18,0.65,1,4,2,1.16131675900033,2,18,6,4,0.726566345001629,1,1.16131675900033,4,0,1,0,0,NaN,NaN,NaN,1
1,89,0.65,1,6,2,1.44219429000077,1,17,3,2,0.8148571239999,0,NaN,NaN,0,0,0,1,NaN,-0.5,0.866025403784439,1
1,151,0.65,1,8,2,1.34730666199903,2,7,15,2,0.0957918299991434,1,1.34730666199903,2,0,1,0,0,NaN,NaN,NaN,1
1,228,0.65,1,10,2,0.871203566000986,1,12,3,2,0.361352824998903,0,NaN,NaN,0,0,0,1,NaN,0.309016994374947,0.951056516295154,1
1,229,0.65,1,10,1,0.409522382000432,1,13,6,4,0.315395100000387,1,0.409522382000432,4,1,0,0,0,0.409522382000432,-1,1.22464679914735e-16,1
1,34,1.4,1,4,1,0.353242638999291,1,34,3,4,0.13573345399891,1,0.353242638999291,4,1,0,0,0,0.353242638999291,-1,1.22464679914735e-16,1
1,237,1.4,1,10,2,0.64026068000021,2,21,14,2,0.171324333001394,1,0.64026068000021,2,0,1,0,0,NaN,NaN,NaN,1
1,35,1.4,1,4,2,0.404349935999562,2,35,5,4,0.266641035999783,1,0.404349935999562,4,0,1,0,0,NaN,NaN,NaN,1
1,108,1.4,1,6,1,0.475491430999682,1,36,4,4,0.732243485999788,1,0.475491430999682,4,1,0,0,0,0.475491430999682,-1,1.22464679914735e-16,1
1,91,1.4,1,6,1,1.5215720160013,1,19,4,3,0.633624676000181,1,1.5215720160013,3,1,0,0,0,1.5215720160013,-1,1.22464679914735e-16,1
1,61,1.4,3,4,1,0.577248941999642,1,61,3,4,0.187452493000819,1,0.577248941999642,4,1,0,0,0,0.577248941999642,-1,1.22464679914735e-16,1
1,234,0.65,1,10,2,0.942382919998636,1,18,6,1,0.618671775000621,0,NaN,NaN,0,0,0,1,NaN,-1,1.22464679914735e-16,1
1,104,1.4,1,6,1,1.17314711600011,1,32,3,3,0.673694307000915,1,1.17314711600011,3,1,0,0,0,1.17314711600011,-0.5,0.866025403784439,1
1,256,0.65,3,10,1,0.634444629999052,1,40,6,4,0.140300536999348,1,0.634444629999052,4,1,0,0,0,0.634444629999052,-1,1.22464679914735e-16,1
1,184,0.65,3,8,2,1.18230259699885,2,40,14,2,0.525849068000753,1,1.18230259699885,2,0,1,0,0,NaN,NaN,NaN,1
1,258,0.65,3,10,2,1.11220800600131,1,42,3,1,0.45741167199958,0,NaN,NaN,0,0,0,1,NaN,0.309016994374947,0.951056516295154,1
1,113,1.4,3,6,1,0.767303515998719,1,41,5,4,0.463778928000465,1,0.767303515998719,4,1,0,0,0,0.767303515998719,-0.5,-0.866025403784438,1
1,17,0.65,1,4,1,0.411852876000921,1,17,4,4,0.129206403000353,1,0.411852876000921,4,1,0,0,0,0.411852876000921,-1.83697019872103e-16,-1,1
1,178,1.4,1,8,2,0.799740514999939,1,34,2,2,0.607031641000503,0,NaN,NaN,0,0,0,1,NaN,0.707106781186548,0.707106781186547,1
1,85,0.65,1,6,2,1.47907237399886,2,13,7,2,0.378143664000163,1,1.47907237399886,2,0,1,0,0,NaN,NaN,NaN,1
1,168,1.4,1,8,2,1.2538471959997,2,24,9,2,0.641996202999508,1,1.2538471959997,2,0,1,0,0,NaN,NaN,NaN,1
1,31,1.4,1,4,2,0.570960098999421,2,31,7,4,0.178394213000502,1,0.570960098999421,4,0,1,0,0,NaN,NaN,NaN,1
1,253,0.65,3,10,2,0.612670635000541,2,37,20,3,1.55991053599973,1,0.612670635000541,3,0,1,0,0,NaN,NaN,NaN,1
1,1,0.65,1,4,2,0.400038699001016,2,1,5,4,0.183904192001137,1,0.400038699001016,4,0,1,0,0,NaN,NaN,NaN,1
1,13,0.65,1,4,2,0.436762621999151,2,13,6,4,0.321502599999803,1,0.436762621999151,4,0,1,0,0,NaN,NaN,NaN,1
1,207,0.65,3,8,1,0.652082044000053,2,63,12,4,0.2217066230005,0,NaN,NaN,0,0,1,0,NaN,NaN,NaN,1
1,280,0.65,3,10,2,0.954085705001489,1,64,5,2,0.0721658330003265,0,NaN,NaN,0,0,0,1,NaN,-0.809016994374947,0.587785252292473,1
1,90,0.65,1,6,2,0.486590849999629,2,18,9,3,0.473234303999561,1,0.486590849999629,3,0,1,0,0,NaN,NaN,NaN,1
1,180,1.4,1,8,2,1.74842984099996,2,36,12,2,0.13304250299916,1,1.74842984099996,2,0,1,0,0,NaN,NaN,NaN,1
1,243,1.4,1,10,2,0.782822007000505,2,27,12,2,0.540910756000812,1,0.782822007000505,2,0,1,0,0,NaN,NaN,NaN,1
1,3,0.65,1,4,1,0.594112930999472,1,3,1,4,0.150374086999363,1,0.594112930999472,4,1,0,0,0,0.594112930999472,1,0,1
1,267,1.4,3,10,2,1.90221617200041,2,51,15,2,0.339693373998671,1,1.90221617200041,2,0,1,0,0,NaN,NaN,NaN,1
1,197,1.4,3,8,2,0.542926125001031,1,53,6,2,0.276817762000064,0,NaN,NaN,0,0,0,1,NaN,-0.707106781186548,-0.707106781186547,1
1,239,1.4,1,10,2,0.617443277998973,2,23,18,2,0.49643259199911,1,0.617443277998973,2,0,1,0,0,NaN,NaN,NaN,1
1,210,1.4,3,8,2,0.792358036998849,1,66,7,2,0.121883814999819,0,NaN,NaN,0,0,0,1,NaN,-1.83697019872103e-16,-1,1
1,281,0.65,3,10,2,0.714845294998668,1,65,5,2,0.215147085000353,0,NaN,NaN,0,0,0,1,NaN,-0.809016994374947,0.587785252292473,1
1,167,1.4,1,8,2,0.711611790000461,2,23,14,2,0.330865435000305,1,0.711611790000461,2,0,1,0,0,NaN,NaN,NaN,1
1,95,1.4,1,6,1,1.3190838190003,1,23,2,3,0.568957813000452,1,1.3190838190003,3,1,0,0,0,1.3190838190003,0.5,0.866025403784439,1
1,105,1.4,1,6,2,0.818345945001056,1,33,1,2,1.52527297900087,0,NaN,NaN,0,0,0,1,NaN,1,0,1
1,220,0.65,1,10,2,0.581928271998549,2,4,15,2,0.242553249998309,1,0.581928271998549,2,0,1,0,0,NaN,NaN,NaN,1
1,279,0.65,3,10,2,1.03708373399968,2,63,13,2,0.243701112998679,1,1.03708373399968,2,0,1,0,0,NaN,NaN,NaN,1
1,98,1.4,1,6,2,0.459102257000268,1,26,3,2,0.283138034999865,0,NaN,NaN,0,0,0,1,NaN,-0.5,0.866025403784439,1
1,282,1.4,3,10,1,2.72051078899858,1,66,8,2,0.602129036999031,1,2.72051078899858,2,1,0,0,0,2.72051078899858,-0.309016994374948,-0.951056516295154,1
1,143,0.65,3,6,2,0.624376519001089,1,71,6,4,0.440564908998567,0,NaN,NaN,0,0,0,1,NaN,0.5,-0.866025403784439,1
1,96,1.4,1,6,2,0.524911086000429,2,24,10,3,0.32696609300001,1,0.524911086000429,3,0,1,0,0,NaN,NaN,NaN,1
1,12,0.65,1,4,1,0.815716729999622,1,12,3,3,0.646650410000802,1,0.815716729999622,3,1,0,0,0,0.815716729999622,-1,1.22464679914735e-16,1
1,153,0.65,1,8,2,0.592271179999443,2,9,14,2,0.206159422999917,1,0.592271179999443,2,0,1,0,0,NaN,NaN,NaN,1
1,47,1.4,3,4,1,0.466156124999543,1,47,1,4,0.560564952000277,1,0.466156124999543,4,1,0,0,0,0.466156124999543,1,0,1
1,14,0.65,1,4,2,0.746629852001206,1,14,2,3,1.70834296900102,0,NaN,NaN,0,0,0,1,NaN,6.12323399573677e-17,1,1
1,163,1.4,1,8,2,0.693287562000478,1,19,8,3,0.807272918000308,0,NaN,NaN,0,0,0,1,NaN,0.707106781186547,-0.707106781186548,1
1,139,1.4,3,6,2,0.536374015000547,2,67,10,3,0.207175464000102,1,0.536374015000547,3,0,1,0,0,NaN,NaN,NaN,1
1,174,1.4,1,8,1,0.316219659000126,1,30,8,4,0.423709168999267,1,0.316219659000126,4,1,0,0,0,0.316219659000126,0.707106781186547,-0.707106781186548,1
1,159,0.65,1,8,1,1.23691829500058,1,15,7,2,0.501051680001183,1,1.23691829500058,2,1,0,0,0,1.23691829500058,-1.83697019872103e-16,-1,1
1,21,1.4,1,4,2,0.922684609999123,2,21,6,3,0.382469284000763,1,0.922684609999123,3,0,1,0,0,NaN,NaN,NaN,1
1,24,1.4,1,4,1,0.634633118001148,1,24,2,4,0.323591080999904,1,0.634633118001148,4,1,0,0,0,0.634633118001148,6.12323399573677e-17,1,1
1,162,0.65,1,8,1,1.83323166600167,2,18,14,2,0.63872848200117,0,NaN,NaN,0,0,1,0,NaN,NaN,NaN,1
1,23,1.4,1,4,2,0.644738928998777,2,23,8,4,0.491798341001413,1,0.644738928998777,4,0,1,0,0,NaN,NaN,NaN,1
1,79,0.65,1,6,2,0.637278955000511,2,7,10,2,0.782469489000505,1,0.637278955000511,2,0,1,0,0,NaN,NaN,NaN,1
1,28,1.4,1,4,2,0.445393661999333,2,28,7,4,0.152326403000188,1,0.445393661999333,4,0,1,0,0,NaN,NaN,NaN,1
1,208,0.65,3,8,1,1.54766863699842,2,64,12,2,0.472963480000544,0,NaN,NaN,0,0,1,0,NaN,NaN,NaN,1
1,166,1.4,1,8,1,0.487187301001541,1,22,6,4,0.109855079999761,1,0.487187301001541,4,1,0,0,0,0.487187301001541,-0.707106781186548,-0.707106781186547,1
1,175,1.4,1,8,2,1.32694972199897,2,31,16,2,0.0527311530004226,1,1.32694972199897,2,0,1,0,0,NaN,NaN,NaN,1
1,233,0.65,1,10,2,1.08546552900043,2,17,15,2,0.222692739000195,1,1.08546552900043,2,0,1,0,0,NaN,NaN,NaN,1
1,119,1.4,3,6,2,1.98451084699991,2,47,7,3,0.0750041049996071,1,1.98451084699991,3,0,1,0,0,NaN,NaN,NaN,1
1,112,0.65,3,6,2,0.704347214999871,2,40,11,3,0.485285295000722,1,0.704347214999871,3,0,1,0,0,NaN,NaN,NaN,1
1,200,0.65,3,8,1,1.03586442500091,1,56,1,3,0.250896120000107,1,1.03586442500091,3,1,0,0,0,1.03586442500091,1,0,1
1,135,0.65,3,6,2,0.604508480000732,2,63,11,3,0.197347240999079,1,0.604508480000732,3,0,1,0,0,NaN,NaN,NaN,1
1,120,1.4,3,6,2,0.68536635000055,1,48,1,3,0.16938029099947,0,NaN,NaN,0,0,0,1,NaN,1,0,1
1,11,0.65,1,4,1,0.429021601999921,1,11,3,4,0.196943590999581,1,0.429021601999921,4,1,0,0,0,0.429021601999921,-1,1.22464679914735e-16,1
1,83,0.65,1,6,2,1.70783184500033,1,11,6,3,1.82165377199999,0,NaN,NaN,0,0,0,1,NaN,0.5,-0.866025403784439,1
1,80,0.65,1,6,2,0.666914159999578,2,8,12,2,0.181107837001036,1,0.666914159999578,2,0,1,0,0,NaN,NaN,NaN,1
1,283,1.4,3,10,2,0.956176625000808,2,67,19,2,0.165630244000567,1,0.956176625000808,2,0,1,0,0,NaN,NaN,NaN,1
1,169,1.4,1,8,2,1.36219215300116,2,25,10,3,0.764733631000126,1,1.36219215300116,3,0,1,0,0,NaN,NaN,NaN,1
1,240,1.4,1,10,1,0.413112328998977,1,24,10,4,0.145304871999542,1,0.413112328998977,4,1,0,0,0,0.413112328998977,0.809016994374947,-0.587785252292473,1
1,114,0.65,3,6,2,0.626246559999345,2,42,9,3,0.309114265000971,1,0.626246559999345,3,0,1,0,0,NaN,NaN,NaN,1
1,73,0.65,1,6,2,0.415905496998676,1,1,1,4,0.65435045599952,0,NaN,NaN,0,0,0,1,NaN,1,0,1
1,149,0.65,1,8,1,0.503528828001436,1,5,8,4,0.236902704000386,1,0.503528828001436,4,1,0,0,0,0.503528828001436,0.707106781186547,-0.707106781186548,1
1,147,0.65,1,8,1,1.35507659599898,1,3,8,2,0.502678564000234,1,1.35507659599898,2,1,0,0,0,1.35507659599898,0.707106781186547,-0.707106781186548,1
1,53,1.4,3,4,2,0.455607705000148,2,53,7,4,0.152521930000148,1,0.455607705000148,4,0,1,0,0,NaN,NaN,NaN,1
1,191,1.4,3,8,2,1.50434399300138,2,47,11,2,0.348327415998938,1,1.50434399300138,2,0,1,0,0,NaN,NaN,NaN,1
1,15,0.65,1,4,2,0.463621695000256,2,15,8,4,0.125889401999302,1,0.463621695000256,4,0,1,0,0,NaN,NaN,NaN,1
1,137,0.65,3,6,2,0.494540817000598,1,65,6,3,0.625396534000174,0,NaN,NaN,0,0,0,1,NaN,0.5,-0.866025403784439,1
1,172,1.4,1,8,2,0.894226267999329,2,28,15,2,0.595841198000926,1,0.894226267999329,2,0,1,0,0,NaN,NaN,NaN,1
1,78,0.65,1,6,2,0.541776899000979,2,6,12,4,0.192721261999395,1,0.541776899000979,4,0,1,0,0,NaN,NaN,NaN,1
1,155,0.65,1,8,2,1.03797339999983,2,11,12,2,0.438728988001458,1,1.03797339999983,2,0,1,0,0,NaN,NaN,NaN,1
1,247,1.4,1,10,1,0.470642939000754,1,31,4,4,0.323658370998601,1,0.470642939000754,4,1,0,0,0,0.470642939000754,-0.309016994374947,0.951056516295154,1
1,211,1.4,3,8,1,1.28881127400018,1,67,7,2,0.404545284000051,1,1.28881127400018,2,1,0,0,0,1.28881127400018,-1.83697019872103e-16,-1,1
1,2,0.65,1,4,2,0.750156184998559,2,2,8,4,0.799387650000426,1,0.750156184998559,4,0,1,0,0,NaN,NaN,NaN,1
1,16,0.65,1,4,2,0.597453049000251,1,16,3,4,0.461176142998738,0,NaN,NaN,0,0,0,1,NaN,-1,1.22464679914735e-16,1
1,257,1.4,3,10,1,2.77106187400022,1,41,3,1,0.758941617999881,1,2.77106187400022,1,1,0,0,0,2.77106187400022,0.309016994374947,0.951056516295154,1
1,32,1.4,1,4,2,0.474940133999553,2,32,5,4,0.161491350998404,1,0.474940133999553,4,0,1,0,0,NaN,NaN,NaN,1
1,248,1.4,1,10,2,1.0381032690002,2,32,13,2,0.950157629000387,1,1.0381032690002,2,0,1,0,0,NaN,NaN,NaN,1
1,102,1.4,1,6,2,2.4030160580005,1,30,3,2,0.441549405999467,0,NaN,NaN,0,0,0,1,NaN,-0.5,0.866025403784439,1
1,176,1.4,1,8,2,0.799237756998991,2,32,15,2,0.412537949001489,1,0.799237756998991,2,0,1,0,0,NaN,NaN,NaN,1
1,27,1.4,1,4,2,0.48478330800026,2,27,7,4,0.167509791999692,1,0.48478330800026,4,0,1,0,0,NaN,NaN,NaN,1
1,65,0.65,3,4,2,0.323354963000384,1,65,3,1,1.702054546,0,NaN,NaN,0,0,0,1,NaN,-1,1.22464679914735e-16,1
1,128,0.65,3,6,2,0.831375732001106,2,56,9,4,0.180592239999896,1,0.831375732001106,4,0,1,0,0,NaN,NaN,NaN,1
1,123,1.4,3,6,1,0.617815174999123,1,51,3,4,0.193755919999603,1,0.617815174999123,4,1,0,0,0,0.617815174999123,-0.5,0.866025403784439,1
1,150,0.65,1,8,1,1.07774448199962,1,6,1,3,0.176485763000528,1,1.07774448199962,3,1,0,0,0,1.07774448199962,1,0,1
1,36,1.4,1,4,2,0.53221547999965,2,36,5,4,0.145710865001092,1,0.53221547999965,4,0,1,0,0,NaN,NaN,NaN,1
1,181,0.65,3,8,1,0.640872744999797,1,37,1,4,0.113464720998309,1,0.640872744999797,4,1,0,0,0,0.640872744999797,1,0,1
1,100,1.4,1,6,2,1.29262373299935,1,28,5,2,0.38266146100068,0,NaN,NaN,0,0,0,1,NaN,-0.5,-0.866025403784438,1
1,99,1.4,1,6,2,0.806700409000769,2,27,8,3,0.392243468000743,1,0.806700409000769,3,0,1,0,0,NaN,NaN,NaN,1
1,173,1.4,1,8,2,0.823033619000853,2,29,10,2,0.275415729000088,1,0.823033619000853,2,0,1,0,0,NaN,NaN,NaN,1
1,101,1.4,1,6,2,1.01961866699821,2,29,8,3,0.0699238050001441,1,1.01961866699821,3,0,1,0,0,NaN,NaN,NaN,1
1,71,0.65,3,4,2,0.493439156998647,2,71,5,4,0.174416456000472,1,0.493439156998647,4,0,1,0,0,NaN,NaN,NaN,1
1,250,1.4,1,10,2,1.66618475399991,1,34,8,1,0.0521271990000969,0,NaN,NaN,0,0,0,1,NaN,-0.309016994374948,-0.951056516295154,1
1,64,0.65,3,4,1,0.535377918999075,1,64,2,4,0.0744807699993544,1,0.535377918999075,4,1,0,0,0,0.535377918999075,6.12323399573677e-17,1,1
1,156,0.65,1,8,1,0.602925633000268,1,12,3,4,1.12084502400103,1,0.602925633000268,4,1,0,0,0,0.602925633000268,6.12323399573677e-17,1,1
1,134,0.65,3,6,2,2.42001164000067,2,62,11,2,0.106470443999569,1,2.42001164000067,2,0,1,0,0,NaN,NaN,NaN,1
1,230,0.65,1,10,2,1.63969819900012,2,14,15,1,0.0941545490004501,1,1.63969819900012,1,0,1,0,0,NaN,NaN,NaN,1
1,161,0.65,1,8,1,0.858110277000378,1,17,8,3,0.171582984999986,1,0.858110277000378,3,1,0,0,0,0.858110277000378,0.707106781186547,-0.707106781186548,1
1,249,1.4,1,10,1,0.627334910001082,1,33,7,3,0.554772195000623,1,0.627334910001082,3,1,0,0,0,0.627334910001082,-0.809016994374947,-0.587785252292473,1
1,4,0.65,1,4,2,0.532056558000477,2,4,7,4,0.387273768999876,1,0.532056558000477,4,0,1,0,0,NaN,NaN,NaN,1
1,251,1.4,1,10,1,2.08802598399961,1,35,5,2,0.564474651000637,1,2.08802598399961,2,1,0,0,0,2.08802598399961,-0.809016994374947,0.587785252292473,1
1,20,1.4,1,4,1,0.416027699999177,1,20,2,4,0.144630245000371,1,0.416027699999177,4,1,0,0,0,0.416027699999177,6.12323399573677e-17,1,1
1,236,1.4,1,10,2,2.71712652299902,2,20,15,2,0.406621557998733,1,2.71712652299902,2,0,1,0,0,NaN,NaN,NaN,1
1,246,1.4,1,10,2,1.16428879500018,1,30,5,3,0.370594369000173,0,NaN,NaN,0,0,0,1,NaN,-0.809016994374947,0.587785252292473,1
1,185,1.4,3,8,2,2.92711607800084,2,41,13,2,1.75474273500004,1,2.92711607800084,2,0,1,0,0,NaN,NaN,NaN,1
1,263,1.4,3,10,1,0.491639649000717,1,47,4,4,0.555215063001015,1,0.491639649000717,4,1,0,0,0,0.491639649000717,-0.309016994374947,0.951056516295154,1
1,223,0.65,1,10,2,2.15963129100055,2,7,13,1,0.315814879000754,1,2.15963129100055,1,0,1,0,0,NaN,NaN,NaN,1
2,239,1.4,1,10,2,1.54079825500048,1,23,1,3,1.85579492100078,0,NaN,NaN,0,0,0,1,NaN,1,0,1
2,18,0.65,1,4,1,1.5678109269993,1,18,4,4,0.600470194998707,1,1.5678109269993,4,1,0,0,0,1.5678109269993,-1.83697019872103e-16,-1,1
2,267,0.65,3,10,2,0.99150130200178,1,51,4,3,1.32663227800003,0,NaN,NaN,0,0,0,1,NaN,-0.309016994374947,0.951056516295154,1
2,16,0.65,1,4,2,0.809564844999841,2,16,7,4,0.656066069999724,1,0.809564844999841,4,0,1,0,0,NaN,NaN,NaN,1
2,174,1.4,1,8,2,0.95614156999909,2,30,14,3,0.748170016999211,1,0.95614156999909,3,0,1,0,0,NaN,NaN,NaN,1
2,19,1.4,1,4,1,0.80186659300125,1,19,3,4,0.466354524000053,1,0.80186659300125,4,1,0,0,0,0.80186659300125,-1,1.22464679914735e-16,1
2,11,0.65,1,4,2,0.567389081999863,2,11,6,4,0.337736084000426,1,0.567389081999863,4,0,1,0,0,NaN,NaN,NaN,1
2,17,0.65,1,4,1,0.656658892999985,1,17,4,4,0.362437822999709,1,0.656658892999985,4,1,0,0,0,0.656658892999985,-1.83697019872103e-16,-1,1
2,213,0.65,3,8,1,0.49156345099982,1,69,4,4,0.558454519999941,1,0.49156345099982,4,1,0,0,0,0.49156345099982,-0.707106781186547,0.707106781186548,1
2,67,1.4,3,4,2,1.04412059099923,1,67,2,4,0.0705325510007242,0,NaN,NaN,0,0,0,1,NaN,6.12323399573677e-17,1,1
2,110,0.65,3,6,2,1.39324062800006,2,38,11,3,0.129019689000415,1,1.39324062800006,3,0,1,0,0,NaN,NaN,NaN,1
2,88,0.65,1,6,1,0.689117762998649,1,16,2,4,0.174529748999703,1,0.689117762998649,4,1,0,0,0,0.689117762998649,0.5,0.866025403784439,1
2,15,0.65,1,4,2,0.674133540000184,2,15,8,4,0.167748500998641,1,0.674133540000184,4,0,1,0,0,NaN,NaN,NaN,1
2,155,0.65,1,8,2,0.466530949999651,1,11,7,2,0.957275734999712,0,NaN,NaN,0,0,0,1,NaN,-1.83697019872103e-16,-1,1
2,117,1.4,3,6,2,1.66683178700077,2,45,9,2,0.356468056999802,1,1.66683178700077,2,0,1,0,0,NaN,NaN,NaN,1
2,87,0.65,1,6,2,1.50080426900058,1,15,6,3,0.24935707899931,0,NaN,NaN,0,0,0,1,NaN,0.5,-0.866025403784439,1
2,86,0.65,1,6,2,0.817494298999009,2,14,9,2,0.249742830001196,1,0.817494298999009,2,0,1,0,0,NaN,NaN,NaN,1
2,252,1.4,1,10,1,0.73532517700005,1,36,5,4,0.329560968999431,1,0.73532517700005,4,1,0,0,0,0.73532517700005,-0.809016994374947,0.587785252292473,1
2,135,0.65,3,6,2,2.49374167299902,2,63,8,3,0.0607854399986536,1,2.49374167299902,3,0,1,0,0,NaN,NaN,NaN,1
2,189,1.4,3,8,2,1.25432175800051,1,45,3,2,0.0589179959988542,0,NaN,NaN,0,0,0,1,NaN,6.12323399573677e-17,1,1
2,229,0.65,1,10,2,1.62734676400032,1,13,7,2,0.138009960001,0,NaN,NaN,0,0,0,1,NaN,-0.809016994374947,-0.587785252292473,1
2,22,1.4,1,4,1,0.717961694999758,1,22,4,4,0.148162004001279,1,0.717961694999758,4,1,0,0,0,0.717961694999758,-1.83697019872103e-16,-1,1
2,142,1.4,3,6,1,0.906473851999181,1,70,6,4,0.128214802000002,1,0.906473851999181,4,1,0,0,0,0.906473851999181,0.5,-0.866025403784439,1
2,60,1.4,3,4,1,0.568737105999389,1,60,1,4,0.0680065520009521,1,0.568737105999389,4,1,0,0,0,0.568737105999389,1,0,1
2,168,1.4,1,8,2,1.10579844600034,2,24,11,2,0.0933962399994925,1,1.10579844600034,2,0,1,0,0,NaN,NaN,NaN,1
2,261,1.4,3,10,2,1.68855960600013,1,45,10,3,0.420381072999589,0,NaN,NaN,0,0,0,1,NaN,0.809016994374947,-0.587785252292473,1
2,84,0.65,1,6,2,1.06437010599984,2,12,8,3,0.146693646000131,1,1.06437010599984,3,0,1,0,0,NaN,NaN,NaN,1
2,1,0.65,1,4,1,0.597785975000079,1,1,4,4,0.0384731819995068,1,0.597785975000079,4,1,0,0,0,0.597785975000079,-1.83697019872103e-16,-1,1
2,264,1.4,3,10,2,1.88188752799942,1,48,1,3,0.0864665190001688,0,NaN,NaN,0,0,0,1,NaN,1,0,1
2,241,1.4,1,10,2,1.56475483600116,2,25,13,2,0.0221880059998512,1,1.56475483600116,2,0,1,0,0,NaN,NaN,NaN,1
2,184,0.65,3,8,2,0.86632257599922,2,40,15,2,0.101871647000735,1,0.86632257599922,2,0,1,0,0,NaN,NaN,NaN,1
2,111,0.65,3,6,2,0.777525980000064,2,39,9,3,0.486841814999934,1,0.777525980000064,3,0,1,0,0,NaN,NaN,NaN,1
2,285,0.65,3,10,2,0.794763367999622,2,69,19,3,0.251193553000121,1,0.794763367999622,3,0,1,0,0,NaN,NaN,NaN,1
2,35,1.4,1,4,2,0.821215256000869,1,35,3,4,0.366910554999777,0,NaN,NaN,0,0,0,1,NaN,-1,1.22464679914735e-16,1
2,248,1.4,1,10,1,0.90189756899963,1,32,2,4,0.285027106001507,1,0.90189756899963,4,1,0,0,0,0.90189756899963,0.809016994374947,0.587785252292473,1
2,149,0.65,1,8,2,1.23027519300013,2,5,13,3,0.0225113569995301,1,1.23027519300013,3,0,1,0,0,NaN,NaN,NaN,1
2,181,0.65,3,8,1,0.489037925000957,1,37,3,4,0.166014143000211,1,0.489037925000957,4,1,0,0,0,0.489037925000957,6.12323399573677e-17,1,1
2,180,1.4,1,8,2,0.469206423998912,1,36,4,3,0.906258004000847,0,NaN,NaN,0,0,0,1,NaN,-0.707106781186547,0.707106781186548,1
2,89,0.65,1,6,2,1.16521045199988,2,17,11,3,0.32172876200093,1,1.16521045199988,3,0,1,0,0,NaN,NaN,NaN,1
2,225,0.65,1,10,2,0.732094236000194,2,9,16,3,0.546826068999508,1,0.732094236000194,3,0,1,0,0,NaN,NaN,NaN,1
2,166,1.4,1,8,2,0.575187454000115,1,22,4,3,0.210473821000051,0,NaN,NaN,0,0,0,1,NaN,-0.707106781186547,0.707106781186548,1
2,283,1.4,3,10,2,0.810480902000563,1,67,7,3,0.220565388999603,0,NaN,NaN,0,0,0,1,NaN,-0.809016994374947,-0.587785252292473,1
2,148,0.65,1,8,2,0.504150699998718,2,4,16,3,0.508061604999966,1,0.504150699998718,3,0,1,0,0,NaN,NaN,NaN,1
2,242,1.4,1,10,2,0.922712799998408,2,26,19,4,0.434211513000264,1,0.922712799998408,4,0,1,0,0,NaN,NaN,NaN,1
2,99,1.4,1,6,1,1.95581935399969,1,27,6,4,0.125095834999229,1,1.95581935399969,4,1,0,0,0,1.95581935399969,0.5,-0.866025403784439,1
2,177,1.4,1,8,2,0.939396884999951,2,33,13,3,0.0378629980004916,1,0.939396884999951,3,0,1,0,0,NaN,NaN,NaN,1
2,69,0.65,3,4,1,0.616842359000657,1,69,2,4,0.113116403999811,1,0.616842359000657,4,1,0,0,0,0.616842359000657,6.12323399573677e-17,1,1
2,95,1.4,1,6,2,0.757415088000926,2,23,9,4,0.259952745000191,1,0.757415088000926,4,0,1,0,0,NaN,NaN,NaN,1
2,45,1.4,3,4,2,0.846999868999774,1,45,1,4,0.352610138999808,0,NaN,NaN,0,0,0,1,NaN,1,0,1
2,25,1.4,1,4,1,0.688707052999234,1,25,3,4,0.586267864000547,1,0.688707052999234,4,1,0,0,0,0.688707052999234,-1,1.22464679914735e-16,1
2,12,0.65,1,4,2,0.789936743998624,2,12,7,4,0.0489208059989323,1,0.789936743998624,4,0,1,0,0,NaN,NaN,NaN,1
2,32,1.4,1,4,1,1.40007412600062,1,32,2,4,0.006205282999872,1,1.40007412600062,4,1,0,0,0,1.40007412600062,6.12323399573677e-17,1,1
2,103,1.4,1,6,1,0.576924344000872,1,31,4,4,0.113418994000313,1,0.576924344000872,4,1,0,0,0,0.576924344000872,-1,1.22464679914735e-16,1
2,178,1.4,1,8,2,0.783280999001363,1,34,7,3,0.430802274999223,0,NaN,NaN,0,0,0,1,NaN,-1.83697019872103e-16,-1,1
2,13,0.65,1,4,1,0.729048052999133,1,13,4,4,0.261245589999817,1,0.729048052999133,4,1,0,0,0,0.729048052999133,-1.83697019872103e-16,-1,1
2,63,0.65,3,4,1,0.524373787000513,1,63,3,4,0.0171933730016463,1,0.524373787000513,4,1,0,0,0,0.524373787000513,-1,1.22464679914735e-16,1
2,105,1.4,1,6,2,2.08526827800051,2,33,12,3,0.0656181769991235,1,2.08526827800051,3,0,1,0,0,NaN,NaN,NaN,1
2,40,0.65,3,4,NaN,4.00134554499891,1,40,2,2,1.87160547299936,0,NaN,NaN,0,0,0,0,NaN,6.12323399573677e-17,1,1
2,221,0.65,1,10,2,0.837632781000138,2,5,16,3,0.0695230879991868,1,0.837632781000138,3,0,1,0,0,NaN,NaN,NaN,1
2,145,0.65,1,8,1,0.838892579999083,2,1,11,4,0.0448372760001803,0,NaN,NaN,0,0,1,0,NaN,NaN,NaN,1
2,70,1.4,3,4,2,1.33369108800071,2,70,7,4,0.161806717998843,1,1.33369108800071,4,0,1,0,0,NaN,NaN,NaN,1
2,279,0.65,3,10,2,1.26280082499943,1,63,1,3,0.850256006999189,0,NaN,NaN,0,0,0,1,NaN,1,0,1
2,98,1.4,1,6,2,1.31948788299997,2,26,8,3,0.0124334100000851,1,1.31948788299997,3,0,1,0,0,NaN,NaN,NaN,1
2,38,0.65,3,4,1,3.51099510800123,1,38,1,4,0.0103272300002573,1,3.51099510800123,4,1,0,0,0,3.51099510800123,1,0,1
2,34,1.4,1,4,2,0.954332432000228,2,34,8,4,0.0235475919998862,1,0.954332432000228,4,0,1,0,0,NaN,NaN,NaN,1
2,10,0.65,1,4,1,0.266695270998753,1,10,1,4,0.152016948000892,1,0.266695270998753,4,1,0,0,0,0.266695270998753,1,0,1
2,46,0.65,3,4,2,0.570238644999336,2,46,8,4,0.399198115001127,1,0.570238644999336,4,0,1,0,0,NaN,NaN,NaN,1
2,171,1.4,1,8,1,1.09769324999979,2,27,10,4,0.00621308399968257,0,NaN,NaN,0,0,1,0,NaN,NaN,NaN,1
2,27,1.4,1,4,2,0.945505612000488,2,27,8,4,0.023663732001296,1,0.945505612000488,4,0,1,0,0,NaN,NaN,NaN,1
2,107,1.4,1,6,2,0.727438698000697,2,35,7,3,0.193936129000576,1,0.727438698000697,3,0,1,0,0,NaN,NaN,NaN,1
2,109,0.65,3,6,2,0.83398904599926,2,37,11,3,0.0572696420003922,1,0.83398904599926,3,0,1,0,0,NaN,NaN,NaN,1
2,192,1.4,3,8,2,2.66993954699865,2,48,14,3,0.0189696670004196,1,2.66993954699865,3,0,1,0,0,NaN,NaN,NaN,1
2,123,0.65,3,6,NaN,4.00107318600021,1,51,3,2,2.66164346999904,0,NaN,NaN,0,0,0,0,NaN,-0.5,0.866025403784439,1
2,219,0.65,1,10,2,1.53214325500085,1,3,3,2,0.00316650400054641,0,NaN,NaN,0,0,0,1,NaN,0.309016994374947,0.951056516295154,1
2,106,1.4,1,6,2,1.22260453000126,2,34,8,3,1.00623354100026,1,1.22260453000126,3,0,1,0,0,NaN,NaN,NaN,1
2,183,0.65,3,8,2,1.86841084099979,1,39,4,3,0.133986995999294,0,NaN,NaN,0,0,0,1,NaN,-0.707106781186547,0.707106781186548,1
2,14,0.65,1,4,1,0.469073561000187,1,14,1,4,0.116604666000057,1,0.469073561000187,4,1,0,0,0,0.469073561000187,1,0,1
2,79,0.65,1,6,1,1.10409521800102,1,7,2,4,0.044930710000699,1,1.10409521800102,4,1,0,0,0,1.10409521800102,0.5,0.866025403784439,1
2,226,0.65,1,10,2,1.91726304700023,1,10,5,4,0.878796781000347,0,NaN,NaN,0,0,0,1,NaN,-0.809016994374947,0.587785252292473,1
2,204,1.4,3,8,1,0.42885822199969,1,60,2,4,0.0447361599999567,1,0.42885822199969,4,1,0,0,0,0.42885822199969,0.707106781186548,0.707106781186547,1
2,286,1.4,3,10,2,0.750897443000213,2,70,14,3,0.0251688480002485,1,0.750897443000213,3,0,1,0,0,NaN,NaN,NaN,1
2,237,1.4,1,10,2,1.18245646099967,1,21,10,3,0.00502494500142348,0,NaN,NaN,0,0,0,1,NaN,0.809016994374947,-0.587785252292473,1
2,154,0.65,1,8,1,0.745895795000251,1,10,2,4,0.0102890239995759,1,0.745895795000251,4,1,0,0,0,0.745895795000251,0.707106781186548,0.707106781186547,1
2,120,1.4,3,6,2,2.34070136300033,1,48,4,4,0.209694000999662,0,NaN,NaN,0,0,0,1,NaN,-1,1.22464679914735e-16,1
2,141,0.65,3,6,2,0.95574795200082,2,69,9,3,0.00489189499967324,1,0.95574795200082,3,0,1,0,0,NaN,NaN,NaN,1
2,250,1.4,1,10,2,1.19951426300031,2,34,20,3,0.00489930299954722,1,1.19951426300031,3,0,1,0,0,NaN,NaN,NaN,1
2,26,1.4,1,4,2,1.25029668100069,1,26,4,4,0.0958527319999121,0,NaN,NaN,0,0,0,1,NaN,-1.83697019872103e-16,-1,1
2,152,0.65,1,8,2,0.94823298799929,1,8,6,3,0.0462679060001392,0,NaN,NaN,0,0,0,1,NaN,-0.707106781186548,-0.707106781186547,1
2,51,0.65,3,4,2,0.59705961599866,2,51,8,4,0.084398016000705,1,0.59705961599866,4,0,1,0,0,NaN,NaN,NaN,1
2,76,0.65,1,6,2,0.872331676999238,2,4,8,3,0.00625629299975117,1,0.872331676999238,3,0,1,0,0,NaN,NaN,NaN,1
2,234,0.65,1,10,2,0.709373061001315,2,18,12,3,0.043686605999028,1,0.709373061001315,3,0,1,0,0,NaN,NaN,NaN,1
2,74,0.65,1,6,1,0.587007112999345,1,2,1,4,0.118218878000334,1,0.587007112999345,4,1,0,0,0,0.587007112999345,1,0,1
2,215,0.65,3,8,2,1.33955712699935,1,71,8,3,0.100742811999226,0,NaN,NaN,0,0,0,1,NaN,0.707106781186547,-0.707106781186548,1
2,173,1.4,1,8,2,0.822358915000223,1,29,6,3,0.849463017999369,0,NaN,NaN,0,0,0,1,NaN,-0.707106781186548,-0.707106781186547,1
2,287,0.65,3,10,2,0.83070136599963,1,71,8,3,0.00641434000135632,0,NaN,NaN,0,0,0,1,NaN,-0.309016994374948,-0.951056516295154,1
2,31,1.4,1,4,2,0.549982864000413,2,31,6,4,0.188654169998699,1,0.549982864000413,4,0,1,0,0,NaN,NaN,NaN,1
2,235,1.4,1,10,1,0.740016478999678,1,19,4,4,0.0553252469999279,1,0.740016478999678,4,1,0,0,0,0.740016478999678,-0.309016994374947,0.951056516295154,1
2,161,0.65,1,8,2,0.881453758000134,1,17,6,3,0.00690418600061093,0,NaN,NaN,0,0,0,1,NaN,-0.707106781186548,-0.707106781186547,1
2,214,1.4,3,8,2,0.65084954699887,2,70,16,3,0.00887231399974553,1,0.65084954699887,3,0,1,0,0,NaN,NaN,NaN,1
2,190,0.65,3,8,2,1.18018938000023,1,46,4,3,0.0417731179986731,0,NaN,NaN,0,0,0,1,NaN,-0.707106781186547,0.707106781186548,1
2,236,1.4,1,10,2,0.889517782999974,2,20,15,3,0.282191001999308,1,0.889517782999974,3,0,1,0,0,NaN,NaN,NaN,1
2,90,0.65,1,6,2,0.920361335998678,1,18,5,3,0.00498128199978964,0,NaN,NaN,0,0,0,1,NaN,-0.5,-0.866025403784438,1
2,39,0.65,3,4,1,0.805183325001053,1,39,4,4,0.00613145100032852,1,0.805183325001053,4,1,0,0,0,0.805183325001053,-1.83697019872103e-16,-1,1
2,132,1.4,3,6,1,0.880877049999981,1,60,1,4,0.00631190099920786,1,0.880877049999981,4,1,0,0,0,0.880877049999981,1,0,1
2,245,1.4,1,10,1,0.688340602000608,1,29,6,4,0.00624517200049013,1,0.688340602000608,4,1,0,0,0,0.688340602000608,-1,1.22464679914735e-16,1
2,2,0.65,1,4,1,0.632083296999554,1,2,3,4,0.00626366500000586,1,0.632083296999554,4,1,0,0,0,0.632083296999554,-1,1.22464679914735e-16,1
2,230,0.65,1,10,2,0.798784992999572,2,14,15,3,0.0388723010000831,1,0.798784992999572,3,0,1,0,0,NaN,NaN,NaN,1
2,253,0.65,3,10,2,1.84932246100107,1,37,3,2,0.369249037999907,0,NaN,NaN,0,0,0,1,NaN,0.309016994374947,0.951056516295154,1
2,256,0.65,3,10,2,0.746341046000452,2,40,20,3,0.139203323000402,1,0.746341046000452,3,0,1,0,0,NaN,NaN,NaN,1
2,240,1.4,1,10,1,0.732224564999342,1,24,3,4,0.102665707001506,1,0.732224564999342,4,1,0,0,0,0.732224564999342,0.309016994374947,0.951056516295154,1
2,3,0.65,1,4,1,0.48045231299875,1,3,1,4,0.0138402599986875,1,0.48045231299875,4,1,0,0,0,0.48045231299875,1,0,1
2,274,1.4,3,10,1,0.661250344999644,1,58,4,4,0.023378354999295,1,0.661250344999644,4,1,0,0,0,0.661250344999644,-0.309016994374947,0.951056516295154,1
2,163,1.4,1,8,2,1.5878670789989,1,19,3,4,0.557572818001063,0,NaN,NaN,0,0,0,1,NaN,6.12323399573677e-17,1,1
2,7,0.65,1,4,2,1.40199438399941,2,7,8,4,0.0823953559993242,1,1.40199438399941,4,0,1,0,0,NaN,NaN,NaN,1
2,71,0.65,3,4,1,0.824082937999265,1,71,2,4,0.0344563389990071,1,0.824082937999265,4,1,0,0,0,0.824082937999265,6.12323399573677e-17,1,1
2,9,0.65,1,4,2,1.37380342899996,2,9,8,4,0.00615803800064896,1,1.37380342899996,4,0,1,0,0,NaN,NaN,NaN,1
2,150,0.65,1,8,2,2.30359583800055,2,6,16,4,2.15469115800079,1,2.30359583800055,4,0,1,0,0,NaN,NaN,NaN,1
2,29,1.4,1,4,2,1.28762713399919,2,29,6,4,0.0063442139999097,1,1.28762713399919,4,0,1,0,0,NaN,NaN,NaN,1
2,196,1.4,3,8,2,1.23798837399954,2,52,13,3,0.00629438400028448,1,1.23798837399954,3,0,1,0,0,NaN,NaN,NaN,1
2,23,1.4,1,4,1,0.848672894999254,1,23,2,4,0.0133529020004062,1,0.848672894999254,4,1,0,0,0,0.848672894999254,6.12323399573677e-17,1,1
2,232,0.65,1,10,1,0.542519310998614,1,16,3,4,0.0552521699992212,1,0.542519310998614,4,1,0,0,0,0.542519310998614,0.309016994374947,0.951056516295154,1
2,91,1.4,1,6,2,0.952517984998849,2,19,8,4,0.00663886800066393,1,0.952517984998849,4,0,1,0,0,NaN,NaN,NaN,1
2,159,0.65,1,8,2,0.803786407001098,2,15,12,4,0.00619939299940597,1,0.803786407001098,4,0,1,0,0,NaN,NaN,NaN,1
2,162,0.65,1,8,2,0.82018258899916,2,18,11,4,0.00620924400027434,1,0.82018258899916,4,0,1,0,0,NaN,NaN,NaN,1
2,223,0.65,1,10,2,0.90391338200061,2,7,13,4,1.51217551900118,1,0.90391338200061,4,0,1,0,0,NaN,NaN,NaN,1
2,85,0.65,1,6,2,1.15650913599893,2,13,10,3,0.00498016799974721,1,1.15650913599893,3,0,1,0,0,NaN,NaN,NaN,1
2,66,1.4,3,4,2,0.795060541999192,2,66,7,4,0.116273499999807,1,0.795060541999192,4,0,1,0,0,NaN,NaN,NaN,1
2,101,1.4,1,6,2,0.800172379998912,2,29,11,4,0.00625571999989916,1,0.800172379998912,4,0,1,0,0,NaN,NaN,NaN,1
2,83,0.65,1,6,2,0.665094329000567,2,11,11,4,0.00731551900025806,1,0.665094329000567,4,0,1,0,0,NaN,NaN,NaN,1
2,247,1.4,1,10,2,0.751097895999919,1,31,7,3,0.515608547000738,0,NaN,NaN,0,0,0,1,NaN,-0.809016994374947,-0.587785252292473,1
2,104,1.4,1,6,1,0.720896454000467,1,32,2,4,0.0062497290000465,1,0.720896454000467,4,1,0,0,0,0.720896454000467,0.5,0.866025403784439,1
2,182,0.65,3,8,2,1.25769525999931,2,38,12,2,0.00375791700025729,1,1.25769525999931,2,0,1,0,0,NaN,NaN,NaN,1
2,93,1.4,1,6,2,0.791898342999048,1,21,6,4,0.00966123599937418,0,NaN,NaN,0,0,0,1,NaN,0.5,-0.866025403784439,1
2,33,1.4,1,4,2,1.34668212899851,2,33,6,4,0.0287169790008193,1,1.34668212899851,4,0,1,0,0,NaN,NaN,NaN,1
2,118,0.65,3,6,2,1.32570264099922,1,46,3,3,0.00506224600030691,0,NaN,NaN,0,0,0,1,NaN,-0.5,0.866025403784439,1
2,28,1.4,1,4,2,1.11011922000034,2,28,6,4,0.476643598998635,1,1.11011922000034,4,0,1,0,0,NaN,NaN,NaN,1
2,130,1.4,3,6,2,2.15083750099984,1,58,6,3,0.616778142999465,0,NaN,NaN,0,0,0,1,NaN,0.5,-0.866025403784439,1
2,97,1.4,1,6,2,1.19044302799921,1,25,4,3,0.310119165000287,0,NaN,NaN,0,0,0,1,NaN,-1,1.22464679914735e-16,1
2,24,1.4,1,4,1,0.880988519000311,1,24,1,4,0.040216772000349,1,0.880988519000311,4,1,0,0,0,0.880988519000311,1,0,1
2,156,0.65,1,8,2,1.48361542500061,1,12,7,2,0.00307399300072575,0,NaN,NaN,0,0,0,1,NaN,-1.83697019872103e-16,-1,1
2,233,0.65,1,10,2,1.89351337100015,2,17,11,2,0.00381215500055987,1,1.89351337100015,2,0,1,0,0,NaN,NaN,NaN,1
2,5,0.65,1,4,1,0.68578490300024,1,5,4,4,0.0619771660003607,1,0.68578490300024,4,1,0,0,0,0.68578490300024,-1.83697019872103e-16,-1,1
2,4,0.65,1,4,1,0.821304229999441,1,4,4,4,0.00621644900093088,1,0.821304229999441,4,1,0,0,0,0.821304229999441,-1.83697019872103e-16,-1,1
2,164,1.4,1,8,2,1.81238630299958,2,20,13,3,0.30843473799905,1,1.81238630299958,3,0,1,0,0,NaN,NaN,NaN,1
2,37,0.65,3,4,2,1.14667220500087,1,37,2,3,0.00633378800011997,0,NaN,NaN,0,0,0,1,NaN,6.12323399573677e-17,1,1
2,211,1.4,3,8,2,0.546746554999118,2,67,16,3,0.0118210700002237,1,0.546746554999118,3,0,1,0,0,NaN,NaN,NaN,1
2,81,0.65,1,6,2,0.756438561000323,2,9,7,3,0.00603354299892089,1,0.756438561000323,3,0,1,0,0,NaN,NaN,NaN,1
2,255,0.65,3,10,1,1.16376850699999,1,39,1,4,0.00624795200019435,1,1.16376850699999,4,1,0,0,0,1.16376850699999,1,0,1
2,108,1.4,1,6,1,0.492771904999245,1,36,5,4,0.254127840000365,1,0.492771904999245,4,1,0,0,0,0.492771904999245,-0.5,-0.866025403784438,1
2,21,1.4,1,4,2,1.01838073799991,2,21,6,4,0.00630393399842433,1,1.01838073799991,4,0,1,0,0,NaN,NaN,NaN,1
2,153,0.65,1,8,2,1.0184591219986,2,9,12,3,0.0867392340005608,1,1.0184591219986,3,0,1,0,0,NaN,NaN,NaN,1
2,227,0.65,1,10,1,0.704892113999449,1,11,6,4,0.00698907699916163,1,0.704892113999449,4,1,0,0,0,0.704892113999449,-1,1.22464679914735e-16,1
2,73,0.65,1,6,2,1.68263681700046,1,1,3,3,0.350986351000756,0,NaN,NaN,0,0,0,1,NaN,-0.5,0.866025403784439,1
2,202,1.4,3,8,2,1.01549555400015,2,58,14,3,0.00683118800043303,1,1.01549555400015,3,0,1,0,0,NaN,NaN,NaN,1
2,48,1.4,3,4,2,0.697499305999372,2,48,6,3,0.0441171580005175,1,0.697499305999372,3,0,1,0,0,NaN,NaN,NaN,1
2,158,0.65,1,8,1,0.572528017999502,1,14,6,4,0.0763958790012111,1,0.572528017999502,4,1,0,0,0,0.572528017999502,-0.707106781186548,-0.707106781186547,1
2,92,1.4,1,6,1,0.517010235998896,1,20,5,4,0.00626799400015443,1,0.517010235998896,4,1,0,0,0,0.517010235998896,-0.5,-0.866025403784438,1
2,276,1.4,3,10,2,0.751722204999169,2,60,15,3,0.364976581999144,1,0.751722204999169,3,0,1,0,0,NaN,NaN,NaN,1
2,124,1.4,3,6,2,0.771639522999976,1,52,6,3,0.0139973740006099,0,NaN,NaN,0,0,0,1,NaN,0.5,-0.866025403784439,1
2,146,0.65,1,8,2,0.711944271000903,2,2,15,3,0.00692934499966213,1,0.711944271000903,3,0,1,0,0,NaN,NaN,NaN,1
2,167,1.4,1,8,2,0.845176603001164,2,23,13,3,0.00642230099947483,1,0.845176603001164,3,0,1,0,0,NaN,NaN,NaN,1
2,207,0.65,3,8,2,0.858241920999717,2,63,16,3,0.0280977009988419,1,0.858241920999717,3,0,1,0,0,NaN,NaN,NaN,1
2,220,0.65,1,10,2,0.666817747000096,2,4,12,3,0.0124005190009484,1,0.666817747000096,3,0,1,0,0,NaN,NaN,NaN,1
2,20,1.4,1,4,2,1.28348185199866,2,20,7,4,0.191002889998344,1,1.28348185199866,4,0,1,0,0,NaN,NaN,NaN,1
2,151,0.65,1,8,1,1.1683410379992,2,7,16,4,0.00592408500051533,0,NaN,NaN,0,0,1,0,NaN,NaN,NaN,1
2,243,1.4,1,10,2,0.757932522999909,1,27,1,2,1.0671172830007,0,NaN,NaN,0,0,0,1,NaN,1,0,1
2,251,1.4,1,10,2,0.830036563000249,2,35,12,3,0.198160820998964,1,0.830036563000249,3,0,1,0,0,NaN,NaN,NaN,1
2,271,1.4,3,10,2,0.745963859999392,2,55,16,3,0.00467448999916087,1,0.745963859999392,3,0,1,0,0,NaN,NaN,NaN,1
2,249,1.4,1,10,2,2.19485741499921,1,33,7,2,1.14499404599883,0,NaN,NaN,0,0,0,1,NaN,-0.809016994374947,-0.587785252292473,1
2,244,1.4,1,10,2,1.7192977600007,2,28,12,2,0.0448534120005206,1,1.7192977600007,2,0,1,0,0,NaN,NaN,NaN,1
2,210,1.4,3,8,2,0.699908995000442,2,66,14,3,0.95759021899903,1,0.699908995000442,3,0,1,0,0,NaN,NaN,NaN,1
2,246,1.4,1,10,2,0.773217450998345,1,30,8,3,0.0687010139990889,0,NaN,NaN,0,0,0,1,NaN,-0.309016994374948,-0.951056516295154,1
2,170,1.4,1,8,1,1.88035784900057,1,26,1,4,0.00539163499888673,1,1.88035784900057,4,1,0,0,0,1.88035784900057,1,0,1
2,282,1.4,3,10,2,0.694301085000916,2,66,14,3,0.00470755399874179,1,0.694301085000916,3,0,1,0,0,NaN,NaN,NaN,1
2,217,0.65,1,10,2,1.09687446600037,2,1,13,3,0.00501782300125342,1,1.09687446600037,3,0,1,0,0,NaN,NaN,NaN,1
2,8,0.65,1,4,1,0.826398139999583,1,8,2,4,0.008772492999924,1,0.826398139999583,4,1,0,0,0,0.826398139999583,6.12323399573677e-17,1,1
2,77,0.65,1,6,2,1.86074320799889,1,5,2,1,1.05299395600014,0,NaN,NaN,0,0,0,1,NaN,0.5,0.866025403784439,1
2,138,1.4,3,6,2,1.11006362800072,2,66,10,3,0.00484965299983742,1,1.11006362800072,3,0,1,0,0,NaN,NaN,NaN,1
2,228,0.65,1,10,2,1.37028696800007,1,12,7,3,0.309470255999258,0,NaN,NaN,0,0,0,1,NaN,-0.809016994374947,-0.587785252292473,1
2,268,1.4,3,10,2,0.708385175999865,2,52,17,2,0.516039874999478,1,0.708385175999865,2,0,1,0,0,NaN,NaN,NaN,1
2,112,0.65,3,6,2,0.773925174000397,2,40,7,3,0.0049033449995477,1,0.773925174000397,3,0,1,0,0,NaN,NaN,NaN,1
2,179,1.4,1,8,2,1.17692746000102,2,35,10,2,0.322137236998969,1,1.17692746000102,2,0,1,0,0,NaN,NaN,NaN,1
2,58,1.4,3,4,2,0.733181032001085,2,58,7,4,0.118860004999078,1,0.733181032001085,4,0,1,0,0,NaN,NaN,NaN,1
2,165,1.4,1,8,1,0.833743335999316,1,21,3,4,0.0351998570004071,1,0.833743335999316,4,1,0,0,0,0.833743335999316,6.12323399573677e-17,1,1
2,199,1.4,3,8,2,0.787535541001489,2,55,15,3,0.757354573001066,1,0.787535541001489,3,0,1,0,0,NaN,NaN,NaN,1
2,172,1.4,1,8,2,0.476821013999142,2,28,13,3,0.559070026998597,1,0.476821013999142,3,0,1,0,0,NaN,NaN,NaN,1
2,94,1.4,1,6,2,0.761015950000001,2,22,10,3,0.00446546999955899,1,0.761015950000001,3,0,1,0,0,NaN,NaN,NaN,1
2,224,0.65,1,10,2,2.94565036399945,1,8,8,1,0.0478222410001763,0,NaN,NaN,0,0,0,1,NaN,-0.309016994374948,-0.951056516295154,1
2,218,0.65,1,10,2,1.71626506699977,2,2,16,3,0.834850163999363,1,1.71626506699977,3,0,1,0,0,NaN,NaN,NaN,1
2,238,1.4,1,10,2,0.843082217999836,1,22,1,3,0.0594002260004345,0,NaN,NaN,0,0,0,1,NaN,1,0,1
2,75,0.65,1,6,1,0.746129687999201,1,3,4,4,0.00770307800121373,1,0.746129687999201,4,1,0,0,0,0.746129687999201,-1,1.22464679914735e-16,1
2,175,1.4,1,8,2,0.835667806999481,2,31,9,3,0.00496133900014684,1,0.835667806999481,3,0,1,0,0,NaN,NaN,NaN,1
2,55,1.4,3,4,2,0.532863631000509,2,55,8,4,0.289441688999432,1,0.532863631000509,4,0,1,0,0,NaN,NaN,NaN,1
2,30,1.4,1,4,2,0.73606706099963,2,30,8,4,0.188023067999893,1,0.73606706099963,4,0,1,0,0,NaN,NaN,NaN,1
2,222,0.65,1,10,2,0.608595349000097,1,6,4,3,0.667297322001104,0,NaN,NaN,0,0,0,1,NaN,-0.309016994374947,0.951056516295154,1
2,36,1.4,1,4,2,0.599872963999587,2,36,5,4,0.00806313599969144,1,0.599872963999587,4,0,1,0,0,NaN,NaN,NaN,1
2,80,0.65,1,6,2,0.596801199999391,1,8,1,4,1.13976874199943,0,NaN,NaN,0,0,0,1,NaN,1,0,1
2,262,0.65,3,10,2,1.84666093099986,2,46,19,2,0.31945038899903,1,1.84666093099986,2,0,1,0,0,NaN,NaN,NaN,1
2,254,0.65,3,10,2,0.814145885000471,1,38,3,2,0.285743702999753,0,NaN,NaN,0,0,0,1,NaN,0.309016994374947,0.951056516295154,1
2,157,0.65,1,8,2,0.81710611500057,2,13,16,3,0.00569008999991638,1,0.81710611500057,3,0,1,0,0,NaN,NaN,NaN,1
2,100,1.4,1,6,2,0.980335393000132,2,28,10,3,0.0492193899990525,1,0.980335393000132,3,0,1,0,0,NaN,NaN,NaN,1
2,127,1.4,3,6,2,0.528724985999361,2,55,7,4,0.824652728000729,1,0.528724985999361,4,0,1,0,0,NaN,NaN,NaN,1
2,195,0.65,3,8,2,0.853222438998273,2,51,15,3,0.68539193000106,1,0.853222438998273,3,0,1,0,0,NaN,NaN,NaN,1
2,147,0.65,1,8,2,0.390103244000784,2,3,14,3,0.354036071999872,1,0.390103244000784,3,0,1,0,0,NaN,NaN,NaN,1
2,139,1.4,3,6,1,0.485093956000128,1,67,1,4,0.00845328300056281,1,0.485093956000128,4,1,0,0,0,0.485093956000128,1,0,1
2,160,0.65,1,8,2,3.47545250499934,2,16,9,3,0.165728560999924,1,3.47545250499934,3,0,1,0,0,NaN,NaN,NaN,1
2,82,0.65,1,6,2,1.57766313999855,1,10,2,3,1.68272961799994,0,NaN,NaN,0,0,0,1,NaN,0.5,0.866025403784439,1
2,231,0.65,1,10,2,0.680510782000056,2,15,19,3,0.695833708999999,1,0.680510782000056,3,0,1,0,0,NaN,NaN,NaN,1
2,169,1.4,1,8,2,0.935939836999751,2,25,13,4,0.358336101000532,1,0.935939836999751,4,0,1,0,0,NaN,NaN,NaN,1
2,96,1.4,1,6,2,0.572643296000024,2,24,11,4,1.51980010999978,1,0.572643296000024,4,0,1,0,0,NaN,NaN,NaN,1
2,102,1.4,1,6,2,3.15778547899936,2,30,7,3,0.0854818460011302,1,3.15778547899936,3,0,1,0,0,NaN,NaN,NaN,1
2,176,1.4,1,8,2,0.535272458999316,1,32,1,3,0.100036259998888,0,NaN,NaN,0,0,0,1,NaN,1,0,1
2,52,1.4,3,4,2,0.370604982001169,2,52,5,4,0.506416661999538,1,0.370604982001169,4,0,1,0,0,NaN,NaN,NaN,1
2,6,0.65,1,4,2,1.00729502600007,2,6,6,4,0.3706278009995,1,1.00729502600007,4,0,1,0,0,NaN,NaN,NaN,1
2,143,0.65,3,6,2,0.40567388099953,2,71,12,4,0.652210176998778,1,0.40567388099953,4,0,1,0,0,NaN,NaN,NaN,1
2,78,0.65,1,6,2,1.67644129299879,2,6,7,3,0.0279958020000777,1,1.67644129299879,3,0,1,0,0,NaN,NaN,NaN,1
3,178,1.4,1,8,2,0.944307874000515,1,34,7,1,1.190837741,0,NaN,NaN,0,0,0,1,NaN,-1.83697019872103e-16,-1,1
3,144,1.4,3,6,1,0.466620395000064,1,72,2,4,1.74625164399913,1,0.466620395000064,4,1,0,0,0,0.466620395000064,0.5,0.866025403784439,1
3,81,0.65,1,6,2,1.14386592899973,2,9,8,1,0.872612818999187,1,1.14386592899973,1,0,1,0,0,NaN,NaN,NaN,1
3,23,1.4,1,4,1,2.07155429400154,1,23,4,2,1.02559046299939,1,2.07155429400154,2,1,0,0,0,2.07155429400154,-1.83697019872103e-16,-1,1
3,145,0.65,1,8,2,2.51190228799896,2,1,15,1,2.89581577600256,1,2.51190228799896,1,0,1,0,0,NaN,NaN,NaN,1
3,59,0.65,3,4,2,2.18894247100252,1,59,4,3,1.17125214599946,0,NaN,NaN,0,0,0,1,NaN,-1.83697019872103e-16,-1,1
3,188,1.4,3,8,2,1.30223763699905,2,44,12,4,0.614424107003288,1,1.30223763699905,4,0,1,0,0,NaN,NaN,NaN,1
3,33,1.4,1,4,2,1.28678522400151,2,33,8,4,0.352411411000503,1,1.28678522400151,4,0,1,0,0,NaN,NaN,NaN,1
3,77,0.65,1,6,2,1.49502573599966,2,5,11,4,0.931970907000505,1,1.49502573599966,4,0,1,0,0,NaN,NaN,NaN,1
3,224,0.65,1,10,2,1.36458901600054,2,8,14,4,0.617514290999679,1,1.36458901600054,4,0,1,0,0,NaN,NaN,NaN,1
3,152,0.65,1,8,2,1.66454957400128,2,8,10,4,0.792578204000165,1,1.66454957400128,4,0,1,0,0,NaN,NaN,NaN,1
3,242,1.4,1,10,2,0.982558276999043,1,26,9,3,1.29210681499899,0,NaN,NaN,0,0,0,1,NaN,0.309016994374947,-0.951056516295154,1
3,274,0.65,3,10,2,0.901209102998109,1,58,1,3,0.905456623000646,0,NaN,NaN,0,0,0,1,NaN,1,0,1
3,22,1.4,1,4,2,1.09773249600039,2,22,8,3,1.74340326899983,1,1.09773249600039,3,0,1,0,0,NaN,NaN,NaN,1
3,30,1.4,1,4,1,0.60731744900113,1,30,2,4,0.514080982000451,1,0.60731744900113,4,1,0,0,0,0.60731744900113,6.12323399573677e-17,1,1
3,179,1.4,1,8,2,2.30559061799795,2,35,12,2,2.62342358299793,1,2.30559061799795,2,0,1,0,0,NaN,NaN,NaN,1
3,267,1.4,3,10,1,1.27166297000076,1,51,1,3,1.72366315399995,1,1.27166297000076,3,1,0,0,0,1.27166297000076,1,0,1
3,146,0.65,1,8,2,2.37742495500061,2,2,14,1,0.752379221998126,1,2.37742495500061,1,0,1,0,0,NaN,NaN,NaN,1
3,198,0.65,3,8,1,0.556988292999449,1,54,4,4,0.518851535001886,1,0.556988292999449,4,1,0,0,0,0.556988292999449,-0.707106781186547,0.707106781186548,1
3,37,1.4,3,4,1,0.71805806699922,1,37,3,4,0.385624565999024,1,0.71805806699922,4,1,0,0,0,0.71805806699922,-1,1.22464679914735e-16,1
3,102,1.4,1,6,2,1.43322980599987,1,30,1,3,0.931181167001341,0,NaN,NaN,0,0,0,1,NaN,1,0,1
3,212,0.65,3,8,2,2.65381488099956,2,68,11,3,0.875952221998887,1,2.65381488099956,3,0,1,0,0,NaN,NaN,NaN,1
3,44,1.4,3,4,1,0.580020058001537,1,44,1,4,0.606208488999982,1,0.580020058001537,4,1,0,0,0,0.580020058001537,1,0,1
3,16,0.65,1,4,2,1.43232735700076,1,16,3,4,0.418158180000319,0,NaN,NaN,0,0,0,1,NaN,-1,1.22464679914735e-16,1
3,123,1.4,3,6,2,0.954977154000517,2,51,10,3,1.35216470600062,1,0.954977154000517,3,0,1,0,0,NaN,NaN,NaN,1
3,147,0.65,1,8,2,1.06076109499918,1,3,5,2,0.710463903000345,0,NaN,NaN,0,0,0,1,NaN,-1,1.22464679914735e-16,1
3,216,1.4,3,8,2,0.857907721998345,2,72,10,2,1.28567751099763,1,0.857907721998345,2,0,1,0,0,NaN,NaN,NaN,1
3,239,1.4,1,10,2,2.08049632199982,1,23,9,2,1.63828048100186,0,NaN,NaN,0,0,0,1,NaN,0.309016994374947,-0.951056516295154,1
3,232,0.65,1,10,1,1.65937001599741,1,16,8,3,0.932104428997263,1,1.65937001599741,3,1,0,0,0,1.65937001599741,-0.309016994374948,-0.951056516295154,1
3,229,0.65,1,10,1,0.633994928000902,1,13,5,4,0.639058336000744,1,0.633994928000902,4,1,0,0,0,0.633994928000902,-0.809016994374947,0.587785252292473,1
3,103,1.4,1,6,2,0.904680430998269,2,31,7,4,0.924066364997998,1,0.904680430998269,4,0,1,0,0,NaN,NaN,NaN,1
3,68,0.65,3,4,2,1.7666877240008,2,68,7,4,0.536219854999217,1,1.7666877240008,4,0,1,0,0,NaN,NaN,NaN,1
3,243,1.4,1,10,2,1.84380317899922,1,27,7,2,1.05137263500001,0,NaN,NaN,0,0,0,1,NaN,-0.809016994374947,-0.587785252292473,1
3,35,1.4,1,4,1,0.676844896002876,1,35,1,4,1.11708907300272,1,0.676844896002876,4,1,0,0,0,0.676844896002876,1,0,1
3,79,0.65,1,6,2,1.38878200399995,2,7,7,3,0.899815851000312,1,1.38878200399995,3,0,1,0,0,NaN,NaN,NaN,1
3,171,1.4,1,8,2,2.02956759500012,1,27,3,2,0.799258089999057,0,NaN,NaN,0,0,0,1,NaN,6.12323399573677e-17,1,1
3,119,0.65,3,6,2,1.13388906700129,2,47,7,2,2.20624386200143,1,1.13388906700129,2,0,1,0,0,NaN,NaN,NaN,1
3,101,1.4,1,6,1,1.18824260300244,1,29,6,4,1.36331754799903,1,1.18824260300244,4,1,0,0,0,1.18824260300244,0.5,-0.866025403784439,1
3,11,0.65,1,4,1,0.658533992002049,1,11,1,4,0.524281767000502,1,0.658533992002049,4,1,0,0,0,0.658533992002049,1,0,1
3,221,0.65,1,10,1,1.49241809399973,1,5,1,3,1.42337910400238,1,1.49241809399973,3,1,0,0,0,1.49241809399973,1,0,1
3,139,0.65,3,6,2,1.37773687100344,1,67,1,3,0.609778655998525,0,NaN,NaN,0,0,0,1,NaN,1,0,1
3,141,0.65,3,6,1,1.15539366699886,1,69,4,4,1.0432656869998,1,1.15539366699886,4,1,0,0,0,1.15539366699886,-1,1.22464679914735e-16,1
3,275,0.65,3,10,2,1.38543757699881,2,59,19,2,0.690474249000545,1,1.38543757699881,2,0,1,0,0,NaN,NaN,NaN,1
3,164,1.4,1,8,2,2.39985936100129,2,20,14,2,0.593950242000574,1,2.39985936100129,2,0,1,0,0,NaN,NaN,NaN,1
3,233,0.65,1,10,1,2.04110738099916,2,17,14,3,0.862261919999582,0,NaN,NaN,0,0,1,0,NaN,NaN,NaN,1
3,2,0.65,1,4,2,1.34194220900099,2,2,6,4,0.371853395001381,1,1.34194220900099,4,0,1,0,0,NaN,NaN,NaN,1
3,28,1.4,1,4,1,2.48219631900065,1,28,3,4,1.46475526200084,1,2.48219631900065,4,1,0,0,0,2.48219631900065,-1,1.22464679914735e-16,1
3,159,0.65,1,8,2,1.09975863400177,2,15,15,3,0.884714637999423,1,1.09975863400177,3,0,1,0,0,NaN,NaN,NaN,1
3,75,0.65,1,6,1,1.08453040899985,1,3,6,4,0.26001718200132,1,1.08453040899985,4,1,0,0,0,1.08453040899985,0.5,-0.866025403784439,1
3,111,1.4,3,6,1,1.26667306099989,1,39,4,4,0.253392266000446,1,1.26667306099989,4,1,0,0,0,1.26667306099989,-1,1.22464679914735e-16,1
3,244,1.4,1,10,2,1.6157062300008,2,28,19,3,0.857595205998223,1,1.6157062300008,3,0,1,0,0,NaN,NaN,NaN,1
3,84,0.65,1,6,2,1.06461004800076,2,12,12,4,0.851849499998934,1,1.06461004800076,4,0,1,0,0,NaN,NaN,NaN,1
3,236,1.4,1,10,2,1.93088538600205,2,20,14,2,0.758982618001028,1,1.93088538600205,2,0,1,0,0,NaN,NaN,NaN,1
3,166,1.4,1,8,2,1.97284258099899,1,22,6,2,0.914274367998587,0,NaN,NaN,0,0,0,1,NaN,-0.707106781186548,-0.707106781186547,1
3,76,0.65,1,6,1,0.666918085000361,1,4,4,4,0.365145969997684,1,0.666918085000361,4,1,0,0,0,0.666918085000361,-1,1.22464679914735e-16,1
3,142,1.4,3,6,1,0.615014748000249,1,70,2,4,0.467607225000393,1,0.615014748000249,4,1,0,0,0,0.615014748000249,0.5,0.866025403784439,1
3,170,1.4,1,8,2,0.937274235999212,2,26,14,3,0.694098432002647,1,0.937274235999212,3,0,1,0,0,NaN,NaN,NaN,1
3,284,0.65,3,10,1,0.607142336000834,1,68,10,4,0.505694432999007,1,0.607142336000834,4,1,0,0,0,0.607142336000834,0.809016994374947,-0.587785252292473,1
3,163,1.4,1,8,1,2.28316207999887,2,19,12,2,0.33844771999793,0,NaN,NaN,0,0,1,0,NaN,NaN,NaN,1
3,95,1.4,1,6,2,1.35493948499789,2,23,9,4,0.54150884900082,1,1.35493948499789,4,0,1,0,0,NaN,NaN,NaN,1
3,130,0.65,3,6,2,1.41711905899865,2,58,11,4,0.461365765000664,1,1.41711905899865,4,0,1,0,0,NaN,NaN,NaN,1
3,127,1.4,3,6,1,0.769843204998324,2,55,11,4,0.39465268999993,0,NaN,NaN,0,0,1,0,NaN,NaN,NaN,1
3,150,0.65,1,8,2,0.984929859998374,1,6,8,3,1.500714152,0,NaN,NaN,0,0,0,1,NaN,0.707106781186547,-0.707106781186548,1
3,12,0.65,1,4,2,1.45974386400121,2,12,7,4,0.174826972001028,1,1.45974386400121,4,0,1,0,0,NaN,NaN,NaN,1
3,31,1.4,1,4,2,1.28152573999978,2,31,6,4,0.463057075001416,1,1.28152573999978,4,0,1,0,0,NaN,NaN,NaN,1
3,7,0.65,1,4,2,1.55203329299911,2,7,7,4,0.0800270289983018,1,1.55203329299911,4,0,1,0,0,NaN,NaN,NaN,1
3,208,1.4,3,8,1,1.48617963699871,1,64,7,2,1.26764879000257,1,1.48617963699871,2,1,0,0,0,1.48617963699871,-1.83697019872103e-16,-1,1
3,107,1.4,1,6,2,1.20536920200175,2,35,10,3,1.35512777699842,1,1.20536920200175,3,0,1,0,0,NaN,NaN,NaN,1
3,234,0.65,1,10,1,1.4823055659981,2,18,17,2,0.705133387000387,0,NaN,NaN,0,0,1,0,NaN,NaN,NaN,1
3,13,0.65,1,4,1,0.742753794002056,1,13,3,4,0.324885435999022,1,0.742753794002056,4,1,0,0,0,0.742753794002056,-1,1.22464679914735e-16,1
3,157,0.65,1,8,2,0.962484935000248,2,13,13,3,1.05663383399951,1,0.962484935000248,3,0,1,0,0,NaN,NaN,NaN,1
3,181,1.4,3,8,2,1.50725599799989,2,37,10,1,1.01032283699897,1,1.50725599799989,1,0,1,0,0,NaN,NaN,NaN,1
3,85,0.65,1,6,1,0.708357990999502,1,13,1,4,0.282311441002093,1,0.708357990999502,4,1,0,0,0,0.708357990999502,1,0,1
3,154,0.65,1,8,2,0.98852201399859,2,10,13,2,1.26189517799867,1,0.98852201399859,2,0,1,0,0,NaN,NaN,NaN,1
3,20,1.4,1,4,2,0.839577720002126,2,20,6,4,1.05576178100091,1,0.839577720002126,4,0,1,0,0,NaN,NaN,NaN,1
3,64,1.4,3,4,2,0.990507827998954,2,64,7,4,0.401451623998582,1,0.990507827998954,4,0,1,0,0,NaN,NaN,NaN,1
3,3,0.65,1,4,1,0.614903680001589,1,3,3,4,0.181753485998343,1,0.614903680001589,4,1,0,0,0,0.614903680001589,-1,1.22464679914735e-16,1
3,265,1.4,3,10,2,3.11198847000196,2,49,11,2,1.31833314900359,1,3.11198847000196,2,0,1,0,0,NaN,NaN,NaN,1
3,211,0.65,3,8,2,1.13232581299962,2,67,16,2,0.055209071997524,1,1.13232581299962,2,0,1,0,0,NaN,NaN,NaN,1
3,197,0.65,3,8,2,1.0956638280004,1,53,2,2,0.511608098000579,0,NaN,NaN,0,0,0,1,NaN,0.707106781186548,0.707106781186547,1
3,260,1.4,3,10,2,1.40058207300171,2,44,14,2,0.864639890001854,1,1.40058207300171,2,0,1,0,0,NaN,NaN,NaN,1
3,151,0.65,1,8,1,0.609342359999573,1,7,3,4,0.152362331002223,1,0.609342359999573,4,1,0,0,0,0.609342359999573,6.12323399573677e-17,1,1
3,247,1.4,1,10,2,0.857619598002202,1,31,6,1,0.734266344999924,0,NaN,NaN,0,0,0,1,NaN,-1,1.22464679914735e-16,1
3,86,0.65,1,6,1,0.601775395000004,1,14,1,4,0.283628793000389,1,0.601775395000004,4,1,0,0,0,0.601775395000004,1,0,1
3,36,1.4,1,4,1,0.510575530999631,1,36,4,4,0.115805248999095,1,0.510575530999631,4,1,0,0,0,0.510575530999631,-1.83697019872103e-16,-1,1
3,78,0.65,1,6,2,0.915091748000123,2,6,7,3,1.29521167699932,1,0.915091748000123,3,0,1,0,0,NaN,NaN,NaN,1
3,248,1.4,1,10,1,2.5072722770019,2,32,11,2,0.702699519999442,0,NaN,NaN,0,0,1,0,NaN,NaN,NaN,1
3,83,0.65,1,6,1,0.51762885199787,1,11,4,4,0.128172986002028,1,0.51762885199787,4,1,0,0,0,0.51762885199787,-1,1.22464679914735e-16,1
3,175,1.4,1,8,2,0.628700607998326,2,31,10,2,1.35446724899884,1,0.628700607998326,2,0,1,0,0,NaN,NaN,NaN,1
3,89,0.65,1,6,1,0.81600976000118,1,17,4,4,0.00937729599900194,1,0.81600976000118,4,1,0,0,0,0.81600976000118,-1,1.22464679914735e-16,1
3,116,1.4,3,6,2,2.00821251600064,1,44,6,3,0.835578444999555,0,NaN,NaN,0,0,0,1,NaN,0.5,-0.866025403784439,1
3,165,1.4,1,8,1,0.599194571001135,1,21,4,4,0.012038091001159,1,0.599194571001135,4,1,0,0,0,0.599194571001135,-0.707106781186547,0.707106781186548,1
3,168,1.4,1,8,2,2.14806172099998,2,24,15,3,2.73917261099996,1,2.14806172099998,3,0,1,0,0,NaN,NaN,NaN,1
3,8,0.65,1,4,2,0.885263952000969,1,8,4,4,0.0655182010013959,0,NaN,NaN,0,0,0,1,NaN,-1.83697019872103e-16,-1,1
3,226,0.65,1,10,2,1.46494043599887,2,10,12,3,2.38502109600086,1,1.46494043599887,3,0,1,0,0,NaN,NaN,NaN,1
3,1,0.65,1,4,2,0.834013902000152,2,1,5,4,1.27378426200085,1,0.834013902000152,4,0,1,0,0,NaN,NaN,NaN,1
3,285,0.65,3,10,1,1.80378120300156,2,69,18,2,1.73595011100042,0,NaN,NaN,0,0,1,0,NaN,NaN,NaN,1
3,252,1.4,1,10,1,1.92680540199945,1,36,7,3,1.6671293449981,1,1.92680540199945,3,1,0,0,0,1.92680540199945,-0.809016994374947,-0.587785252292473,1
3,160,0.65,1,8,1,0.851489030002995,1,16,4,4,0.217947092998656,1,0.851489030002995,4,1,0,0,0,0.851489030002995,-0.707106781186547,0.707106781186548,1
3,203,0.65,3,8,2,1.15873863600063,2,59,13,3,0.840087778997258,1,1.15873863600063,3,0,1,0,0,NaN,NaN,NaN,1
3,240,1.4,1,10,2,1.39144826499978,1,24,10,1,1.50368380700093,0,NaN,NaN,0,0,0,1,NaN,0.809016994374947,-0.587785252292473,1
3,249,1.4,1,10,2,1.74743769199995,2,33,11,2,1.01548328599893,1,1.74743769199995,2,0,1,0,0,NaN,NaN,NaN,1
3,58,0.65,3,4,2,1.15297917299904,2,58,8,4,0.259898816999339,1,1.15297917299904,4,0,1,0,0,NaN,NaN,NaN,1
3,158,0.65,1,8,2,1.03614467599982,2,14,14,3,1.83678717799921,1,1.03614467599982,3,0,1,0,0,NaN,NaN,NaN,1
3,97,1.4,1,6,1,0.948246425999969,1,25,3,3,1.58224207999956,1,0.948246425999969,3,1,0,0,0,0.948246425999969,-0.5,0.866025403784439,1
3,5,0.65,1,4,1,0.882411130998662,1,5,4,3,0.734728850002284,1,0.882411130998662,3,1,0,0,0,0.882411130998662,-1.83697019872103e-16,-1,1
3,26,1.4,1,4,1,0.45610131000285,1,26,1,4,0.0747777780015895,1,0.45610131000285,4,1,0,0,0,0.45610131000285,1,0,1
3,255,1.4,3,10,1,1.75809571400168,1,39,2,3,0.845545364001737,1,1.75809571400168,3,1,0,0,0,1.75809571400168,0.809016994374947,0.587785252292473,1
3,183,1.4,3,8,2,2.65666632000284,2,39,14,1,0.227151449002122,1,2.65666632000284,1,0,1,0,0,NaN,NaN,NaN,1
3,148,0.65,1,8,1,0.746657551000681,1,4,2,4,0.114762896999309,1,0.746657551000681,4,1,0,0,0,0.746657551000681,0.707106781186548,0.707106781186547,1
3,106,1.4,1,6,2,0.902976915000181,2,34,9,3,1.03543337600058,1,0.902976915000181,3,0,1,0,0,NaN,NaN,NaN,1
3,90,0.65,1,6,2,1.25614505799967,2,18,12,3,0.804558034997171,1,1.25614505799967,3,0,1,0,0,NaN,NaN,NaN,1
3,69,0.65,3,4,2,0.897948319001443,2,69,7,4,0.207359275002091,1,0.897948319001443,4,0,1,0,0,NaN,NaN,NaN,1
3,167,1.4,1,8,1,1.53334259700205,1,23,4,3,0.908399096999347,1,1.53334259700205,3,1,0,0,0,1.53334259700205,-0.707106781186547,0.707106781186548,1
3,94,1.4,1,6,1,0.679314197001077,1,22,3,4,0.198726995997276,1,0.679314197001077,4,1,0,0,0,0.679314197001077,-0.5,0.866025403784439,1
3,251,1.4,1,10,2,1.67583155300235,1,35,3,2,0.500186239998584,0,NaN,NaN,0,0,0,1,NaN,0.309016994374947,0.951056516295154,1
3,18,0.65,1,4,2,0.75887176499964,2,18,5,4,0.0579812549985945,1,0.75887176499964,4,0,1,0,0,NaN,NaN,NaN,1
3,238,1.4,1,10,2,1.61909888599985,2,22,13,1,1.18721257400102,1,1.61909888599985,1,0,1,0,0,NaN,NaN,NaN,1
3,269,0.65,3,10,1,0.808134132999839,1,53,8,4,0.0455390169991006,1,0.808134132999839,4,1,0,0,0,0.808134132999839,-0.309016994374948,-0.951056516295154,1
3,29,1.4,1,4,2,1.15196462600215,2,29,7,4,0.102495621002163,1,1.15196462600215,4,0,1,0,0,NaN,NaN,NaN,1
3,54,0.65,3,4,2,0.761032092003006,2,54,8,4,0.164202599000419,1,0.761032092003006,4,0,1,0,0,NaN,NaN,NaN,1
3,271,1.4,3,10,2,2.21217568800057,1,55,2,2,0.0602150060003623,0,NaN,NaN,0,0,0,1,NaN,0.809016994374947,0.587785252292473,1
3,149,0.65,1,8,1,0.597069567997096,1,5,6,4,0.0301175499989768,1,0.597069567997096,4,1,0,0,0,0.597069567997096,-0.707106781186548,-0.707106781186547,1
3,73,0.65,1,6,2,2.2063842710013,2,1,11,3,0.766365444997064,1,2.2063842710013,3,0,1,0,0,NaN,NaN,NaN,1
3,288,1.4,3,10,1,0.804693547001079,1,72,2,3,0.598651719999907,1,0.804693547001079,3,1,0,0,0,0.804693547001079,0.809016994374947,0.587785252292473,1
3,53,0.65,3,4,1,0.331496816001163,1,53,2,4,0.0831869569992705,1,0.331496816001163,4,1,0,0,0,0.331496816001163,6.12323399573677e-17,1,1
3,237,1.4,1,10,1,1.73350241299704,1,21,7,2,0.242393413998798,1,1.73350241299704,2,1,0,0,0,1.73350241299704,-0.809016994374947,-0.587785252292473,1
3,15,0.65,1,4,2,1.19505512899923,2,15,5,4,0.801989190000313,1,1.19505512899923,4,0,1,0,0,NaN,NaN,NaN,1
3,74,0.65,1,6,2,0.804278121999232,2,2,9,4,0.103482996997627,1,0.804278121999232,4,0,1,0,0,NaN,NaN,NaN,1
3,230,0.65,1,10,2,2.62118735500189,2,14,11,1,1.51021191600012,1,2.62118735500189,1,0,1,0,0,NaN,NaN,NaN,1
3,93,1.4,1,6,1,0.740520196999569,1,21,3,4,0.05551943500177,1,0.740520196999569,4,1,0,0,0,0.740520196999569,-0.5,0.866025403784439,1
3,82,0.65,1,6,1,0.40660734499761,2,10,7,4,0.00959242599856225,0,NaN,NaN,0,0,1,0,NaN,NaN,NaN,1
3,109,1.4,3,6,1,0.555603297998459,1,37,5,4,0.0593261849971896,1,0.555603297998459,4,1,0,0,0,0.555603297998459,-0.5,-0.866025403784438,1
3,51,1.4,3,4,2,1.16232656200009,2,51,5,4,0.0067730209993897,1,1.16232656200009,4,0,1,0,0,NaN,NaN,NaN,1
3,176,1.4,1,8,1,1.05896247000055,1,32,1,3,0.771374259998993,1,1.05896247000055,3,1,0,0,0,1.05896247000055,1,0,1
3,227,0.65,1,10,2,1.25309562799885,1,11,5,2,0.749837968000065,0,NaN,NaN,0,0,0,1,NaN,-0.809016994374947,0.587785252292473,1
3,155,0.65,1,8,2,1.37239597799999,2,11,16,1,0.845105166001304,1,1.37239597799999,1,0,1,0,0,NaN,NaN,NaN,1
3,39,1.4,3,4,2,0.659408335999615,2,39,6,4,0.0102023120016383,1,0.659408335999615,4,0,1,0,0,NaN,NaN,NaN,1
3,96,1.4,1,6,1,0.481775350002863,1,24,4,4,0.00615559599827975,1,0.481775350002863,4,1,0,0,0,0.481775350002863,-1,1.22464679914735e-16,1
3,67,0.65,3,4,2,0.837867554000695,2,67,7,4,0.0813876669999445,1,0.837867554000695,4,0,1,0,0,NaN,NaN,NaN,1
3,169,1.4,1,8,1,1.17384292300267,2,25,11,4,0.00987643700136687,0,NaN,NaN,0,0,1,0,NaN,NaN,NaN,1
3,177,1.4,1,8,2,0.711336655000196,2,33,12,2,0.328948649999802,1,0.711336655000196,2,0,1,0,0,NaN,NaN,NaN,1
3,143,0.65,3,6,2,1.5292886970019,2,71,11,4,0.159943398997711,1,1.5292886970019,4,0,1,0,0,NaN,NaN,NaN,1
3,71,0.65,3,4,2,0.715991960001702,2,71,7,4,0.00978779199795099,1,0.715991960001702,4,0,1,0,0,NaN,NaN,NaN,1
3,223,0.65,1,10,2,1.73486539100122,1,7,1,2,0.660593753000285,0,NaN,NaN,0,0,0,1,NaN,1,0,1
3,92,1.4,1,6,1,0.480227356998512,1,20,1,4,0.0425253920002433,1,0.480227356998512,4,1,0,0,0,0.480227356998512,1,0,1
3,241,1.4,1,10,1,1.71544679100043,1,25,4,3,0.207416034001653,1,1.71544679100043,3,1,0,0,0,1.71544679100043,-0.309016994374947,0.951056516295154,1
3,214,1.4,3,8,2,2.18059252499734,1,70,5,3,0.442745808999462,0,NaN,NaN,0,0,0,1,NaN,-1,1.22464679914735e-16,1
3,14,0.65,1,4,2,0.59714666400032,2,14,5,4,0.147565713999938,1,0.59714666400032,4,0,1,0,0,NaN,NaN,NaN,1
3,286,1.4,3,10,1,1.11842911499843,2,70,20,3,0.218983058999584,0,NaN,NaN,0,0,1,0,NaN,NaN,NaN,1
3,21,1.4,1,4,2,1.00606999099909,2,21,6,3,1.84236336000322,1,1.00606999099909,3,0,1,0,0,NaN,NaN,NaN,1
3,9,0.65,1,4,2,0.836778224998852,2,9,6,4,0.00620745699779945,1,0.836778224998852,4,0,1,0,0,NaN,NaN,NaN,1
3,193,1.4,3,8,2,1.66493065199757,2,49,11,2,0.723830736002128,1,1.66493065199757,2,0,1,0,0,NaN,NaN,NaN,1
3,245,1.4,1,10,1,0.868215491998853,1,29,5,3,0.525375121000252,1,0.868215491998853,3,1,0,0,0,0.868215491998853,-0.809016994374947,0.587785252292473,1
3,126,0.65,3,6,1,0.531811458000448,1,54,4,4,0.0829631170017819,1,0.531811458000448,4,1,0,0,0,0.531811458000448,-1,1.22464679914735e-16,1
3,125,0.65,3,6,2,1.23842747099843,1,53,6,3,0.501528129996586,0,NaN,NaN,0,0,0,1,NaN,0.5,-0.866025403784439,1
3,156,0.65,1,8,1,1.89021444699756,1,12,1,2,1.19360377900011,1,1.89021444699756,2,1,0,0,0,1.89021444699756,1,0,1
3,88,0.65,1,6,2,1.46994338999866,2,16,9,4,0.716346887998952,1,1.46994338999866,4,0,1,0,0,NaN,NaN,NaN,1
3,10,0.65,1,4,2,0.646039341001597,2,10,6,4,0.00617069100189838,1,0.646039341001597,4,0,1,0,0,NaN,NaN,NaN,1
3,47,0.65,3,4,1,0.578330096999707,1,47,3,4,0.00657273499746225,1,0.578330096999707,4,1,0,0,0,0.578330096999707,-1,1.22464679914735e-16,1
3,32,1.4,1,4,2,0.881520613002067,2,32,7,4,0.00645804300074815,1,0.881520613002067,4,0,1,0,0,NaN,NaN,NaN,1
3,70,1.4,3,4,1,1.04619859800005,1,70,4,4,0.0292034010017233,1,1.04619859800005,4,1,0,0,0,1.04619859800005,-1.83697019872103e-16,-1,1
3,72,1.4,3,4,1,0.547146411998256,1,72,3,4,0.00619620300130919,1,0.547146411998256,4,1,0,0,0,0.547146411998256,-1,1.22464679914735e-16,1
3,195,1.4,3,8,2,1.36113157,2,51,11,2,0.348760215998482,1,1.36113157,2,0,1,0,0,NaN,NaN,NaN,1
3,34,1.4,1,4,1,0.568742051997106,1,34,1,4,0.00849319099870627,1,0.568742051997106,4,1,0,0,0,0.568742051997106,1,0,1
3,191,0.65,3,8,2,1.10261428599915,1,47,7,1,0.8115266959976,0,NaN,NaN,0,0,0,1,NaN,-1.83697019872103e-16,-1,1
3,172,1.4,1,8,2,0.623226908999641,2,28,14,1,0.338127383998653,1,0.623226908999641,1,0,1,0,0,NaN,NaN,NaN,1
3,98,1.4,1,6,1,0.31951560699963,1,26,6,4,0.00906929700067849,1,0.31951560699963,4,1,0,0,0,0.31951560699963,0.5,-0.866025403784439,1
3,27,1.4,1,4,2,1.32882810999945,2,27,5,4,0.0400625330003095,1,1.32882810999945,4,0,1,0,0,NaN,NaN,NaN,1
3,253,1.4,3,10,1,1.02652450000096,1,37,2,4,0.426703281998925,1,1.02652450000096,4,1,0,0,0,1.02652450000096,0.809016994374947,0.587785252292473,1
3,87,0.65,1,6,2,2.55001065500255,2,15,10,2,0.0033415759971831,1,2.55001065500255,2,0,1,0,0,NaN,NaN,NaN,1
3,100,1.4,1,6,2,2.09920200000124,2,28,7,2,0.101968012000725,1,2.09920200000124,2,0,1,0,0,NaN,NaN,NaN,1
3,6,0.65,1,4,1,0.838660888999584,1,6,2,4,0.0605300429997442,1,0.838660888999584,4,1,0,0,0,0.838660888999584,6.12323399573677e-17,1,1
3,220,0.65,1,10,2,0.849669472001551,2,4,20,4,0.216743983000924,1,0.849669472001551,4,0,1,0,0,NaN,NaN,NaN,1
3,228,0.65,1,10,1,1.31648316700011,1,12,10,1,0.298622538000927,1,1.31648316700011,1,1,0,0,0,1.31648316700011,0.809016994374947,-0.587785252292473,1
3,19,1.4,1,4,1,1.23693640300189,1,19,3,4,0.0294770900000003,1,1.23693640300189,4,1,0,0,0,1.23693640300189,-1,1.22464679914735e-16,1
3,217,0.65,1,10,2,1.47402070300086,2,1,15,2,1.05258687000241,1,1.47402070300086,2,0,1,0,0,NaN,NaN,NaN,1
3,162,0.65,1,8,2,1.81248585899812,1,18,5,1,0.33638934299961,0,NaN,NaN,0,0,0,1,NaN,-1,1.22464679914735e-16,1
3,180,1.4,1,8,2,1.05415321500186,2,36,15,2,0.0578234780005005,1,1.05415321500186,2,0,1,0,0,NaN,NaN,NaN,1
3,91,1.4,1,6,1,0.483693943002436,1,19,4,4,0.0816544120025355,1,0.483693943002436,4,1,0,0,0,0.483693943002436,-1,1.22464679914735e-16,1
3,280,1.4,3,10,2,0.757260160000442,2,64,15,1,1.416364875,1,0.757260160000442,1,0,1,0,0,NaN,NaN,NaN,1
3,108,1.4,1,6,1,0.496945982999023,1,36,2,4,0.00606412500201259,1,0.496945982999023,4,1,0,0,0,0.496945982999023,0.5,0.866025403784439,1
3,105,1.4,1,6,1,0.536869731000479,1,33,6,4,0.0110079539990693,1,0.536869731000479,4,1,0,0,0,0.536869731000479,0.5,-0.866025403784439,1
3,219,0.65,1,10,2,1.5039624710007,1,3,1,2,0.397352203999617,0,NaN,NaN,0,0,0,1,NaN,1,0,1
3,140,0.65,3,6,2,0.797010225000122,1,68,5,3,0.869824040000822,0,NaN,NaN,0,0,0,1,NaN,-0.5,-0.866025403784438,1
3,104,1.4,1,6,2,2.08744245700291,1,32,4,2,1.24524406899945,0,NaN,NaN,0,0,0,1,NaN,-1,1.22464679914735e-16,1
3,131,0.65,3,6,2,0.964507540997147,2,59,11,3,1.07464724599777,1,0.964507540997147,3,0,1,0,0,NaN,NaN,NaN,1
3,235,1.4,1,10,1,0.921508387997164,1,19,3,3,0.576811623999674,1,0.921508387997164,3,1,0,0,0,0.921508387997164,0.309016994374947,0.951056516295154,1
3,215,0.65,3,8,2,1.02201752600013,2,71,9,3,1.01191728100093,1,1.02201752600013,3,0,1,0,0,NaN,NaN,NaN,1
3,250,1.4,1,10,2,1.41448087100071,2,34,12,3,0.942220315999293,1,1.41448087100071,3,0,1,0,0,NaN,NaN,NaN,1
3,161,0.65,1,8,1,1.3496491320002,1,17,2,4,0.0818998249997094,1,1.3496491320002,4,1,0,0,0,1.3496491320002,0.707106781186548,0.707106781186547,1
3,4,0.65,1,4,2,0.704827686000499,2,4,6,4,0.144351260001713,1,0.704827686000499,4,0,1,0,0,NaN,NaN,NaN,1
3,136,1.4,3,6,1,0.918504716002644,1,64,4,4,0.431572907997179,1,0.918504716002644,4,1,0,0,0,0.918504716002644,-1,1.22464679914735e-16,1
3,55,1.4,3,4,1,1.65050850199987,1,55,1,4,0.0189364879988716,1,1.65050850199987,4,1,0,0,0,1.65050850199987,1,0,1
3,17,0.65,1,4,2,0.917284870000003,2,17,6,4,0.177226215000701,1,0.917284870000003,4,0,1,0,0,NaN,NaN,NaN,1
3,213,0.65,3,8,1,2.35671895600171,1,69,1,2,0.475504891997844,1,2.35671895600171,2,1,0,0,0,2.35671895600171,1,0,1
3,25,1.4,1,4,1,1.13763365900013,1,25,4,4,0.142576296999323,1,1.13763365900013,4,1,0,0,0,1.13763365900013,-1.83697019872103e-16,-1,1
3,99,1.4,1,6,1,1.18985539699861,2,27,11,1,2.73931091899794,0,NaN,NaN,0,0,1,0,NaN,NaN,NaN,1
3,199,1.4,3,8,2,2.12911277399689,1,55,8,1,0.678272635999747,0,NaN,NaN,0,0,0,1,NaN,0.707106781186547,-0.707106781186548,1
3,222,0.65,1,10,2,1.30169556200053,2,6,17,2,0.607342604998848,1,1.30169556200053,2,0,1,0,0,NaN,NaN,NaN,1
3,218,0.65,1,10,2,1.02520512799674,2,2,18,4,1.19678059700163,1,1.02520512799674,4,0,1,0,0,NaN,NaN,NaN,1
3,174,1.4,1,8,1,1.43875263600057,1,30,2,4,0.91531246500017,1,1.43875263600057,4,1,0,0,0,1.43875263600057,0.707106781186548,0.707106781186547,1
3,287,0.65,3,10,2,1.22440230799839,1,71,7,2,1.04015760000038,0,NaN,NaN,0,0,0,1,NaN,-0.809016994374947,-0.587785252292473,1
3,246,1.4,1,10,2,1.80375360499966,2,30,12,3,0.184715270002926,1,1.80375360499966,3,0,1,0,0,NaN,NaN,NaN,1
3,24,1.4,1,4,1,0.710634438997658,1,24,1,4,0.00597997799923178,1,0.710634438997658,4,1,0,0,0,0.710634438997658,1,0,1
3,153,0.65,1,8,2,1.19026090100306,2,9,12,3,0.883408859001065,1,1.19026090100306,3,0,1,0,0,NaN,NaN,NaN,1
3,80,0.65,1,6,2,1.38172242200017,2,8,7,4,0.413758921997214,1,1.38172242200017,4,0,1,0,0,NaN,NaN,NaN,1
3,270,0.65,3,10,2,1.16145041100026,1,54,8,1,1.55105433100107,0,NaN,NaN,0,0,0,1,NaN,-0.309016994374948,-0.951056516295154,1
3,49,1.4,3,4,1,0.520499448997725,1,49,2,4,0.0446081079971918,1,0.520499448997725,4,1,0,0,0,0.520499448997725,6.12323399573677e-17,1,1
3,173,1.4,1,8,2,1.50820122100049,1,29,5,2,1.1628730070006,0,NaN,NaN,0,0,0,1,NaN,-1,1.22464679914735e-16,1
3,263,0.65,3,10,2,1.23629326199807,2,47,13,4,0.118816805003007,1,1.23629326199807,4,0,1,0,0,NaN,NaN,NaN,1
3,121,1.4,3,6,1,0.645402975998877,1,49,3,4,0.00805659599791397,1,0.645402975998877,4,1,0,0,0,0.645402975998877,-0.5,0.866025403784439,1
3,231,0.65,1,10,2,1.25470414099982,1,15,10,3,0.872681239998201,0,NaN,NaN,0,0,0,1,NaN,0.809016994374947,-0.587785252292473,1
3,225,0.65,1,10,1,1.32608257299944,2,9,14,2,1.14454566000131,0,NaN,NaN,0,0,1,0,NaN,NaN,NaN,1
3,283,0.65,3,10,1,0.618517849001364,1,67,3,4,0.00799192799968296,1,0.618517849001364,4,1,0,0,0,0.618517849001364,0.309016994374947,0.951056516295154,1
3,202,0.65,3,8,1,0.434409524998046,1,58,5,4,0.0050290879989916,1,0.434409524998046,4,1,0,0,0,0.434409524998046,-1,1.22464679914735e-16,1
4,99,1.4,1,6,2,2.6653874460003,2,27,7,3,2.63338582799997,1,2.6653874460003,3,0,1,0,0,NaN,NaN,NaN,1
4,226,0.65,1,10,2,2.21826769499967,1,10,4,2,1.61719315699975,0,NaN,NaN,0,0,0,1,NaN,-0.309016994374947,0.951056516295154,1
4,150,0.65,1,8,2,0.881796765000217,2,6,15,3,1.11736358999997,1,0.881796765000217,3,0,1,0,0,NaN,NaN,NaN,1
4,134,1.4,3,6,2,0.643621343000177,2,62,10,4,1.53127794099964,1,0.643621343000177,4,0,1,0,0,NaN,NaN,NaN,1
4,28,1.4,1,4,2,0.727778361999754,2,28,8,4,0.275302993999958,1,0.727778361999754,4,0,1,0,0,NaN,NaN,NaN,1
4,26,1.4,1,4,2,1.15842896899994,2,26,5,4,0.564593959999911,1,1.15842896899994,4,0,1,0,0,NaN,NaN,NaN,1
4,47,0.65,3,4,2,2.28605878000008,2,47,6,4,1.07621142300013,1,2.28605878000008,4,0,1,0,0,NaN,NaN,NaN,1
4,81,0.65,1,6,2,0.780238368000028,2,9,9,3,0.912714671000231,1,0.780238368000028,3,0,1,0,0,NaN,NaN,NaN,1
4,42,1.4,3,4,2,0.722932392000075,2,42,6,4,0.432462575000045,1,0.722932392000075,4,0,1,0,0,NaN,NaN,NaN,1
4,78,0.65,1,6,1,2.24925619299984,1,6,3,3,0.352705392000189,1,2.24925619299984,3,1,0,0,0,2.24925619299984,-0.5,0.866025403784439,1
4,217,0.65,1,10,NaN,4.00065084400012,2,1,11,1,1.460227046,0,NaN,NaN,0,0,0,0,NaN,NaN,NaN,1
4,156,0.65,1,8,2,2.00270935200024,1,12,6,1,1.43830995100006,0,NaN,NaN,0,0,0,1,NaN,-0.707106781186548,-0.707106781186547,1
4,84,0.65,1,6,1,3.01314097700015,1,12,6,2,0.163126787000238,1,3.01314097700015,2,1,0,0,0,3.01314097700015,0.5,-0.866025403784439,1
4,171,1.4,1,8,2,1.07818097399968,1,27,6,3,0.781903301000057,0,NaN,NaN,0,0,0,1,NaN,-0.707106781186548,-0.707106781186547,1
4,277,0.65,3,10,1,2.63325198700022,1,61,2,1,0.247149359000105,1,2.63325198700022,1,1,0,0,0,2.63325198700022,0.809016994374947,0.587785252292473,1
4,174,1.4,1,8,2,0.871872524000082,1,30,4,2,1.9636075530002,0,NaN,NaN,0,0,0,1,NaN,-0.707106781186547,0.707106781186548,1
4,149,0.65,1,8,1,1.52231056599976,1,5,2,2,0.262998979000258,1,1.52231056599976,2,1,0,0,0,1.52231056599976,0.707106781186548,0.707106781186547,1
4,192,1.4,3,8,1,1.67968008099979,1,48,3,3,0.321788165000271,1,1.67968008099979,3,1,0,0,0,1.67968008099979,6.12323399573677e-17,1,1
4,92,1.4,1,6,2,1.73991283500027,2,20,7,2,0.822616937000021,1,1.73991283500027,2,0,1,0,0,NaN,NaN,NaN,1
4,100,1.4,1,6,2,1.20984745799979,2,28,9,2,0.735338661999776,1,1.20984745799979,2,0,1,0,0,NaN,NaN,NaN,1
4,33,1.4,1,4,2,1.01026823499978,1,33,4,4,0.789266889000373,0,NaN,NaN,0,0,0,1,NaN,-1.83697019872103e-16,-1,1
4,38,1.4,3,4,2,0.688009211000008,2,38,5,4,0.213050803999977,1,0.688009211000008,4,0,1,0,0,NaN,NaN,NaN,1
4,245,1.4,1,10,2,2.07164447600007,2,29,19,2,0.979296697999871,1,2.07164447600007,2,0,1,0,0,NaN,NaN,NaN,1
4,124,1.4,3,6,1,1.30685195000024,1,52,3,4,0.468627537999964,1,1.30685195000024,4,1,0,0,0,1.30685195000024,-0.5,0.866025403784439,1
4,247,1.4,1,10,1,2.9970768180001,1,31,7,1,0.208090067000285,1,2.9970768180001,1,1,0,0,0,2.9970768180001,-0.809016994374947,-0.587785252292473,1
4,266,1.4,3,10,2,1.447201683,2,50,13,1,0.362738210000316,1,1.447201683,1,0,1,0,0,NaN,NaN,NaN,1
4,256,1.4,3,10,2,1.13888183400013,2,40,16,1,0.239741540000068,1,1.13888183400013,1,0,1,0,0,NaN,NaN,NaN,1
4,98,1.4,1,6,2,2.3819398390001,2,26,10,2,0.863259878999997,1,2.3819398390001,2,0,1,0,0,NaN,NaN,NaN,1
4,250,1.4,1,10,1,1.34450390600023,2,34,19,1,0.482146586999988,0,NaN,NaN,0,0,1,0,NaN,NaN,NaN,1
4,145,0.65,1,8,2,0.932719384999928,1,1,8,2,0.0907316900002115,0,NaN,NaN,0,0,0,1,NaN,0.707106781186547,-0.707106781186548,1
4,80,0.65,1,6,2,0.987327934999939,2,8,8,2,0.835977414999888,1,0.987327934999939,2,0,1,0,0,NaN,NaN,NaN,1
4,179,1.4,1,8,2,1.326095076,1,35,1,2,0.374912620000032,0,NaN,NaN,0,0,0,1,NaN,1,0,1
4,104,1.4,1,6,NaN,4.0030871910003,1,32,3,2,2.69273239599988,0,NaN,NaN,0,0,0,0,NaN,-0.5,0.866025403784439,1
4,164,1.4,1,8,1,2.31857157600007,1,20,6,1,0.87453993500003,1,2.31857157600007,1,1,0,0,0,2.31857157600007,-0.707106781186548,-0.707106781186547,1
4,165,1.4,1,8,1,1.24347674499995,1,21,3,3,0.575470390000191,1,1.24347674499995,3,1,0,0,0,1.24347674499995,6.12323399573677e-17,1,1
4,54,0.65,3,4,NaN,4.00313942900038,2,54,5,2,0.78001147499981,0,NaN,NaN,0,0,0,0,NaN,NaN,NaN,1
4,93,1.4,1,6,2,0.835290103000261,2,21,11,3,1.00864306499989,1,0.835290103000261,3,0,1,0,0,NaN,NaN,NaN,1
4,126,0.65,3,6,1,0.997231767999892,1,54,2,4,0.127854032999949,1,0.997231767999892,4,1,0,0,0,0.997231767999892,0.5,0.866025403784439,1
4,230,0.65,1,10,1,1.91768821899996,2,14,17,2,0.146721351000451,0,NaN,NaN,0,0,1,0,NaN,NaN,NaN,1
4,237,1.4,1,10,2,3.08154649100015,2,21,14,2,0.837893077999979,1,3.08154649100015,2,0,1,0,0,NaN,NaN,NaN,1
4,30,1.4,1,4,2,1.76289040399979,2,30,6,4,0.183284242999889,1,1.76289040399979,4,0,1,0,0,NaN,NaN,NaN,1
4,248,1.4,1,10,1,1.21359083300013,1,32,3,3,1.10940354900004,1,1.21359083300013,3,1,0,0,0,1.21359083300013,0.309016994374947,0.951056516295154,1
4,111,0.65,3,6,1,0.966035380999983,1,39,1,4,0.0500121609998132,1,0.966035380999983,4,1,0,0,0,0.966035380999983,1,0,1
4,231,0.65,1,10,1,2.26039434899985,2,15,20,2,0.651381440000023,0,NaN,NaN,0,0,1,0,NaN,NaN,NaN,1
4,50,1.4,3,4,2,1.8314711500002,2,50,8,3,0.499323657000332,1,1.8314711500002,3,0,1,0,0,NaN,NaN,NaN,1
4,9,0.65,1,4,1,1.09696329799999,1,9,3,4,0.479821812999944,1,1.09696329799999,4,1,0,0,0,1.09696329799999,-1,1.22464679914735e-16,1
4,249,1.4,1,10,2,1.27645126400012,2,33,12,3,1.07168534000039,1,1.27645126400012,3,0,1,0,0,NaN,NaN,NaN,1
4,13,0.65,1,4,1,0.836296303999916,1,13,3,4,0.0761142890000883,1,0.836296303999916,4,1,0,0,0,0.836296303999916,-1,1.22464679914735e-16,1
4,21,1.4,1,4,2,2.60914807499967,1,21,4,3,0.349271618999865,0,NaN,NaN,0,0,0,1,NaN,-1.83697019872103e-16,-1,1
4,39,0.65,3,4,2,1.41097228399985,2,39,7,3,0.206309889000295,1,1.41097228399985,3,0,1,0,0,NaN,NaN,NaN,1
4,7,0.65,1,4,1,0.765582731999984,1,7,3,4,0.0839009300002544,1,0.765582731999984,4,1,0,0,0,0.765582731999984,-1,1.22464679914735e-16,1
4,218,0.65,1,10,1,1.31519782300029,2,2,18,2,0.306078636000166,0,NaN,NaN,0,0,1,0,NaN,NaN,NaN,1
4,234,0.65,1,10,2,2.03449399100009,2,18,16,2,0.424365540000053,1,2.03449399100009,2,0,1,0,0,NaN,NaN,NaN,1
4,48,1.4,3,4,2,0.843081707000238,2,48,8,4,0.142919456000072,1,0.843081707000238,4,0,1,0,0,NaN,NaN,NaN,1
4,5,0.65,1,4,2,1.09360928700016,2,5,5,3,1.47340883800007,1,1.09360928700016,3,0,1,0,0,NaN,NaN,NaN,1
4,178,1.4,1,8,2,1.13039751499991,1,34,4,2,0.2535030250001,0,NaN,NaN,0,0,0,1,NaN,-0.707106781186547,0.707106781186548,1
4,61,0.65,3,4,2,1.80207429999973,2,61,7,1,0.450893305999671,1,1.80207429999973,1,0,1,0,0,NaN,NaN,NaN,1
4,259,0.65,3,10,2,2.49776444000008,1,43,7,1,0.594569685999886,0,NaN,NaN,0,0,0,1,NaN,-0.809016994374947,-0.587785252292473,1
4,222,0.65,1,10,1,1.39195892099997,1,6,2,4,0.67681027000026,1,1.39195892099997,4,1,0,0,0,1.39195892099997,0.809016994374947,0.587785252292473,1
4,239,1.4,1,10,1,2.03998133499999,1,23,10,1,0.630419221000011,1,2.03998133499999,1,1,0,0,0,2.03998133499999,0.809016994374947,-0.587785252292473,1
4,251,1.4,1,10,1,0.920309579999866,2,35,13,2,0.560892805000094,0,NaN,NaN,0,0,1,0,NaN,NaN,NaN,1
4,118,1.4,3,6,2,1.70921439099993,2,46,7,3,0.652019164999729,1,1.70921439099993,3,0,1,0,0,NaN,NaN,NaN,1
4,2,0.65,1,4,1,0.909068208000008,1,2,2,4,0.0107185409997328,1,0.909068208000008,4,1,0,0,0,0.909068208000008,6.12323399573677e-17,1,1
4,200,0.65,3,8,2,1.39169320700012,2,56,9,2,0.376920267999594,1,1.39169320700012,2,0,1,0,0,NaN,NaN,NaN,1
4,177,1.4,1,8,1,0.913022860999718,1,33,2,3,1.71819409199998,1,0.913022860999718,3,1,0,0,0,0.913022860999718,0.707106781186548,0.707106781186547,1
4,167,1.4,1,8,1,0.88379981900016,1,23,1,4,0.0386197510001693,1,0.88379981900016,4,1,0,0,0,0.88379981900016,1,0,1
4,262,1.4,3,10,1,1.81858380099993,1,46,1,1,0.288125172000036,1,1.81858380099993,1,1,0,0,0,1.81858380099993,1,0,1
4,64,0.65,3,4,1,0.930099252000218,1,64,1,4,0.0339324000001398,1,0.930099252000218,4,1,0,0,0,0.930099252000218,1,0,1
4,270,0.65,3,10,2,0.938934457999949,1,54,5,3,1.10227510599998,0,NaN,NaN,0,0,0,1,NaN,-0.809016994374947,0.587785252292473,1
4,161,0.65,1,8,2,1.40527853399999,2,17,10,1,1.20954313399989,1,1.40527853399999,1,0,1,0,0,NaN,NaN,NaN,1
4,278,1.4,3,10,1,1.79534708200026,2,62,14,2,0.133894041999611,0,NaN,NaN,0,0,1,0,NaN,NaN,NaN,1
4,110,1.4,3,6,1,1.81346073200029,2,38,12,2,1.45906481200018,0,NaN,NaN,0,0,1,0,NaN,NaN,NaN,1
4,18,0.65,1,4,1,2.32026691600004,1,18,4,4,0.619367121999858,1,2.32026691600004,4,1,0,0,0,2.32026691600004,-1.83697019872103e-16,-1,1
4,27,1.4,1,4,2,0.865922181999849,2,27,7,4,0.644878291999703,1,0.865922181999849,4,0,1,0,0,NaN,NaN,NaN,1
4,57,1.4,3,4,2,0.732483638999838,2,57,8,4,0.21632383899987,1,0.732483638999838,4,0,1,0,0,NaN,NaN,NaN,1
4,10,0.65,1,4,2,2.27828534399987,1,10,4,3,0.117261892999977,0,NaN,NaN,0,0,0,1,NaN,-1.83697019872103e-16,-1,1
4,8,0.65,1,4,2,0.926306293999914,2,8,7,4,0.445403602000169,1,0.926306293999914,4,0,1,0,0,NaN,NaN,NaN,1
4,182,1.4,3,8,2,1.08980628000018,2,38,10,2,0.089340147999792,1,1.08980628000018,2,0,1,0,0,NaN,NaN,NaN,1
4,46,1.4,3,4,1,1.00614979200009,1,46,4,4,0.00884625500020775,1,1.00614979200009,4,1,0,0,0,1.00614979200009,-1.83697019872103e-16,-1,1
4,201,1.4,3,8,1,2.03447864000009,2,57,16,2,0.414965701000256,0,NaN,NaN,0,0,1,0,NaN,NaN,NaN,1
4,220,0.65,1,10,1,1.63606131699999,2,4,14,1,0.712632953000139,0,NaN,NaN,0,0,1,0,NaN,NaN,NaN,1
4,95,1.4,1,6,2,2.69384802600007,2,23,11,2,1.91676519200018,1,2.69384802600007,2,0,1,0,0,NaN,NaN,NaN,1
4,74,0.65,1,6,1,0.981573045000005,1,2,4,3,0.437441758000205,1,0.981573045000005,3,1,0,0,0,0.981573045000005,-1,1.22464679914735e-16,1
4,113,0.65,3,6,2,2.69073386399987,1,41,1,1,2.26722045799988,0,NaN,NaN,0,0,0,1,NaN,1,0,1
4,160,0.65,1,8,1,1.71739534100016,2,16,12,1,0.94595241199977,0,NaN,NaN,0,0,1,0,NaN,NaN,NaN,1
4,6,0.65,1,4,1,1.03641942099966,1,6,2,4,0.446493872000246,1,1.03641942099966,4,1,0,0,0,1.03641942099966,6.12323399573677e-17,1,1
4,23,1.4,1,4,2,1.3768321409998,2,23,5,3,0.790782529000353,1,1.3768321409998,3,0,1,0,0,NaN,NaN,NaN,1
4,85,0.65,1,6,2,1.02061441900014,2,13,10,3,0.841645933000109,1,1.02061441900014,3,0,1,0,0,NaN,NaN,NaN,1
4,176,1.4,1,8,1,0.883038682000006,1,32,2,4,0.150965968000037,1,0.883038682000006,4,1,0,0,0,0.883038682000006,0.707106781186548,0.707106781186547,1
4,128,0.65,3,6,1,0.806617910000114,1,56,2,3,0.529813204999755,1,0.806617910000114,3,1,0,0,0,0.806617910000114,0.5,0.866025403784439,1
4,83,0.65,1,6,2,0.872701230000075,2,11,12,3,0.407141487999979,1,0.872701230000075,3,0,1,0,0,NaN,NaN,NaN,1
4,221,0.65,1,10,1,1.97218016900024,1,5,8,2,1.08244318800007,1,1.97218016900024,2,1,0,0,0,1.97218016900024,-0.309016994374948,-0.951056516295154,1
4,229,0.65,1,10,2,1.24289546299997,2,13,16,2,1.64513425799987,1,1.24289546299997,2,0,1,0,0,NaN,NaN,NaN,1
4,40,1.4,3,4,2,0.788248173999818,2,40,5,4,0.899260168999717,1,0.788248173999818,4,0,1,0,0,NaN,NaN,NaN,1
4,168,1.4,1,8,2,1.26752410000017,2,24,9,2,0.537390992999917,1,1.26752410000017,2,0,1,0,0,NaN,NaN,NaN,1
4,158,0.65,1,8,2,2.91492984300021,2,14,10,1,1.35095940799965,1,2.91492984300021,1,0,1,0,0,NaN,NaN,NaN,1
4,75,0.65,1,6,2,1.11903608200009,2,3,9,2,0.878954263000196,1,1.11903608200009,2,0,1,0,0,NaN,NaN,NaN,1
4,136,0.65,3,6,2,0.797843376999936,2,64,11,2,1.43152252800019,1,0.797843376999936,2,0,1,0,0,NaN,NaN,NaN,1
4,244,1.4,1,10,1,1.07148984500009,1,28,3,4,0.155178677000094,1,1.07148984500009,4,1,0,0,0,1.07148984500009,0.309016994374947,0.951056516295154,1
4,41,0.65,3,4,2,1.14828157000011,2,41,7,4,1.2916112490002,1,1.14828157000011,4,0,1,0,0,NaN,NaN,NaN,1
4,219,0.65,1,10,2,1.1802936160002,1,3,4,3,1.55180399899973,0,NaN,NaN,0,0,0,1,NaN,-0.309016994374947,0.951056516295154,1
4,235,1.4,1,10,1,2.86200893399973,2,19,15,1,0.70644928999991,0,NaN,NaN,0,0,1,0,NaN,NaN,NaN,1
4,240,1.4,1,10,1,0.869879602999845,1,24,2,4,0.610767713999849,1,0.869879602999845,4,1,0,0,0,0.869879602999845,0.809016994374947,0.587785252292473,1
4,166,1.4,1,8,1,2.01919246699981,2,22,13,2,0.400714101000176,0,NaN,NaN,0,0,1,0,NaN,NaN,NaN,1
4,14,0.65,1,4,2,0.880089643999781,2,14,6,4,0.132410488000005,1,0.880089643999781,4,0,1,0,0,NaN,NaN,NaN,1
4,162,0.65,1,8,1,0.822745244000089,1,18,2,4,0.0290332780000426,1,0.822745244000089,4,1,0,0,0,0.822745244000089,0.707106781186548,0.707106781186547,1
4,24,1.4,1,4,1,2.25886460500033,2,24,7,1,2.42688516599992,0,NaN,NaN,0,0,1,0,NaN,NaN,NaN,1
4,155,0.65,1,8,2,1.18721999499985,2,11,15,2,0.799117491999823,1,1.18721999499985,2,0,1,0,0,NaN,NaN,NaN,1
4,106,1.4,1,6,2,1.2971652199999,2,34,7,3,0.115921909999997,1,1.2971652199999,3,0,1,0,0,NaN,NaN,NaN,1
4,114,1.4,3,6,2,1.30247633099998,1,42,6,3,0.25758087999975,0,NaN,NaN,0,0,0,1,NaN,0.5,-0.866025403784439,1
4,32,1.4,1,4,2,1.06635172300003,2,32,8,4,0.671743601000344,1,1.06635172300003,4,0,1,0,0,NaN,NaN,NaN,1
4,232,0.65,1,10,1,3.56246049099991,2,16,14,1,1.19244590900007,0,NaN,NaN,0,0,1,0,NaN,NaN,NaN,1
4,184,1.4,3,8,1,0.749998052000137,1,40,1,4,0.00758426100037468,1,0.749998052000137,4,1,0,0,0,0.749998052000137,1,0,1
4,280,0.65,3,10,2,2.21486719799987,2,64,13,1,0.698106039000322,1,2.21486719799987,1,0,1,0,0,NaN,NaN,NaN,1
4,180,1.4,1,8,1,1.67917054100008,1,36,5,1,0.0719539050001003,1,1.67917054100008,1,1,0,0,0,1.67917054100008,-1,1.22464679914735e-16,1
4,254,1.4,3,10,2,1.62605403099997,1,38,7,2,1.63939159999973,0,NaN,NaN,0,0,0,1,NaN,-0.809016994374947,-0.587785252292473,1
4,88,0.65,1,6,1,0.868323547999807,1,16,4,4,0.280386907999855,1,0.868323547999807,4,1,0,0,0,0.868323547999807,-1,1.22464679914735e-16,1
4,19,1.4,1,4,1,0.675406340000336,1,19,1,4,0.0306754750004075,1,0.675406340000336,4,1,0,0,0,0.675406340000336,1,0,1
4,4,0.65,1,4,1,0.474371159000384,1,4,1,4,0.0084007880000172,1,0.474371159000384,4,1,0,0,0,0.474371159000384,1,0,1
4,146,0.65,1,8,1,2.13407732000042,2,2,9,1,0.482515103999958,0,NaN,NaN,0,0,1,0,NaN,NaN,NaN,1
4,129,1.4,3,6,2,1.27040629999965,2,57,9,3,0.893415339000057,1,1.27040629999965,3,0,1,0,0,NaN,NaN,NaN,1
4,133,0.65,3,6,2,1.85036462500011,2,61,8,3,0.424878791999618,1,1.85036462500011,3,0,1,0,0,NaN,NaN,NaN,1
4,35,1.4,1,4,2,0.733309538999947,2,35,5,4,0.0850341339996703,1,0.733309538999947,4,0,1,0,0,NaN,NaN,NaN,1
4,172,1.4,1,8,1,1.05938356299976,1,28,3,4,0.00724257899992153,1,1.05938356299976,4,1,0,0,0,1.05938356299976,6.12323399573677e-17,1,1
4,194,1.4,3,8,2,1.51414995699997,2,50,15,3,1.1663814210001,1,1.51414995699997,3,0,1,0,0,NaN,NaN,NaN,1
4,242,1.4,1,10,2,1.54450068599999,2,26,20,2,2.36300650600015,1,1.54450068599999,2,0,1,0,0,NaN,NaN,NaN,1
4,208,0.65,3,8,2,1.07072316899985,1,64,5,3,0.651194594000117,0,NaN,NaN,0,0,0,1,NaN,-1,1.22464679914735e-16,1
4,22,1.4,1,4,2,0.935419350999837,2,22,6,4,0.0952870940000139,1,0.935419350999837,4,0,1,0,0,NaN,NaN,NaN,1
4,103,1.4,1,6,1,0.779491305000192,1,31,3,4,0.00847038599977168,1,0.779491305000192,4,1,0,0,0,0.779491305000192,-0.5,0.866025403784439,1
4,31,1.4,1,4,1,0.563336488000004,1,31,1,4,0.00812436199976219,1,0.563336488000004,4,1,0,0,0,0.563336488000004,1,0,1
4,112,1.4,3,6,1,1.62160671499987,1,40,3,4,0.479300997999871,1,1.62160671499987,4,1,0,0,0,1.62160671499987,-0.5,0.866025403784439,1
4,223,0.65,1,10,1,1.64594650300023,1,7,10,1,0.272329335999984,1,1.64594650300023,1,1,0,0,0,1.64594650300023,0.809016994374947,-0.587785252292473,1
4,173,1.4,1,8,2,1.22506328600002,2,29,12,1,0.562665551999999,1,1.22506328600002,1,0,1,0,0,NaN,NaN,NaN,1
4,170,1.4,1,8,2,1.79382502399994,2,26,14,2,0.193805369000074,1,1.79382502399994,2,0,1,0,0,NaN,NaN,NaN,1
4,25,1.4,1,4,2,1.67223325900022,2,25,5,4,0.0735948679998728,1,1.67223325900022,4,0,1,0,0,NaN,NaN,NaN,1
4,62,1.4,3,4,1,0.87994459499987,1,62,2,4,0.0391759569997703,1,0.87994459499987,4,1,0,0,0,0.87994459499987,6.12323399573677e-17,1,1
4,3,0.65,1,4,2,0.999422416000016,2,3,5,4,0.00785377900001549,1,0.999422416000016,4,0,1,0,0,NaN,NaN,NaN,1
4,56,0.65,3,4,2,2.09028814599969,2,56,8,4,0.241497008999431,1,2.09028814599969,4,0,1,0,0,NaN,NaN,NaN,1
4,107,1.4,1,6,2,0.954597461999583,2,35,12,3,0.290603542999634,1,0.954597461999583,3,0,1,0,0,NaN,NaN,NaN,1
4,79,0.65,1,6,2,1.36909589400057,2,7,9,3,0.437855947000571,1,1.36909589400057,3,0,1,0,0,NaN,NaN,NaN,1
4,15,0.65,1,4,2,0.818673896999826,2,15,5,4,0.0347852810000404,1,0.818673896999826,4,0,1,0,0,NaN,NaN,NaN,1
4,53,0.65,3,4,1,0.66048638600023,1,53,1,4,0.00616271900071297,1,0.66048638600023,4,1,0,0,0,0.66048638600023,1,0,1
4,187,0.65,3,8,1,2.17633872599981,2,43,13,2,0.581798019999951,0,NaN,NaN,0,0,1,0,NaN,NaN,NaN,1
4,76,0.65,1,6,2,1.67390700800024,1,4,5,3,0.704602478000197,0,NaN,NaN,0,0,0,1,NaN,-0.5,-0.866025403784438,1
4,119,0.65,3,6,1,1.81966876100068,2,47,12,2,0.449462246000621,0,NaN,NaN,0,0,1,0,NaN,NaN,NaN,1
4,151,0.65,1,8,1,0.964939557999969,1,7,5,3,0.325127770000108,1,0.964939557999969,3,1,0,0,0,0.964939557999969,-1,1.22464679914735e-16,1
4,77,0.65,1,6,2,1.07843889899959,2,5,11,3,0.39896427199983,1,1.07843889899959,3,0,1,0,0,NaN,NaN,NaN,1
4,87,0.65,1,6,1,1.17241833600019,1,15,4,4,0.00632604099973832,1,1.17241833600019,4,1,0,0,0,1.17241833600019,-1,1.22464679914735e-16,1
4,96,1.4,1,6,2,2.58219947799989,1,24,6,2,0.815698501000043,0,NaN,NaN,0,0,0,1,NaN,0.5,-0.866025403784439,1
4,243,1.4,1,10,1,2.07938938700045,2,27,20,1,0.342427944000519,0,NaN,NaN,0,0,1,0,NaN,NaN,NaN,1
4,183,0.65,3,8,2,2.3568099260001,2,39,15,1,0.406562492000376,1,2.3568099260001,1,0,1,0,0,NaN,NaN,NaN,1
4,252,1.4,1,10,2,2.91769632299929,1,36,1,2,0.845796633999271,0,NaN,NaN,0,0,0,1,NaN,1,0,1
4,101,1.4,1,6,1,0.673552303000179,1,29,3,4,0.00715632799983723,1,0.673552303000179,4,1,0,0,0,0.673552303000179,-0.5,0.866025403784439,1
4,263,0.65,3,10,1,1.7746058570001,2,47,14,2,0.0844933239995953,0,NaN,NaN,0,0,1,0,NaN,NaN,NaN,1
4,122,1.4,3,6,1,2.08820187699985,2,50,9,1,1.88991598400025,0,NaN,NaN,0,0,1,0,NaN,NaN,NaN,1
4,163,1.4,1,8,1,0.844088568000188,1,19,2,4,0.0081622410007185,1,0.844088568000188,4,1,0,0,0,0.844088568000188,0.707106781186548,0.707106781186547,1
4,159,0.65,1,8,1,3.38445754800068,1,15,6,1,0.883993550000014,1,3.38445754800068,1,1,0,0,0,3.38445754800068,-0.707106781186548,-0.707106781186547,1
4,12,0.65,1,4,1,0.82629219500086,1,12,3,4,0.23932053199951,1,0.82629219500086,4,1,0,0,0,0.82629219500086,-1,1.22464679914735e-16,1
4,272,0.65,3,10,1,0.606410148999203,1,56,2,4,0.014046395999685,1,0.606410148999203,4,1,0,0,0,0.606410148999203,0.809016994374947,0.587785252292473,1
4,264,1.4,3,10,1,2.29594492700016,2,48,13,1,0.180449395999858,0,NaN,NaN,0,0,1,0,NaN,NaN,NaN,1
4,36,1.4,1,4,1,0.801824385000145,1,36,3,4,0.00729692200002319,1,0.801824385000145,4,1,0,0,0,0.801824385000145,-1,1.22464679914735e-16,1
4,1,0.65,1,4,1,0.614040188000217,1,1,1,4,0.0347070710004118,1,0.614040188000217,4,1,0,0,0,0.614040188000217,1,0,1
4,157,0.65,1,8,1,0.915116092000062,1,13,2,4,0.0825334660003136,1,0.915116092000062,4,1,0,0,0,0.915116092000062,0.707106781186548,0.707106781186547,1
4,120,1.4,3,6,2,1.07179029300005,2,48,8,2,1.60679696800071,1,1.07179029300005,2,0,1,0,0,NaN,NaN,NaN,1
4,175,1.4,1,8,2,2.31588765699962,1,31,8,2,0.595546315999854,0,NaN,NaN,0,0,0,1,NaN,0.707106781186547,-0.707106781186548,1
4,196,1.4,3,8,1,1.53884311900038,2,52,13,2,0.479286473999309,0,NaN,NaN,0,0,1,0,NaN,NaN,NaN,1
4,190,1.4,3,8,1,3.58384920900062,2,46,13,1,0.903816283000197,0,NaN,NaN,0,0,1,0,NaN,NaN,NaN,1
4,89,0.65,1,6,1,0.780431384000622,1,17,4,4,0.00773496300007537,1,0.780431384000622,4,1,0,0,0,0.780431384000622,-1,1.22464679914735e-16,1
4,73,0.65,1,6,2,1.42180079199989,2,1,11,3,1.26137111600019,1,1.42180079199989,3,0,1,0,0,NaN,NaN,NaN,1
4,82,0.65,1,6,2,1.68541191300028,2,10,9,3,2.17656963399986,1,1.68541191300028,3,0,1,0,0,NaN,NaN,NaN,1
4,105,1.4,1,6,1,0.813845886000308,1,33,2,4,0.0344448699997884,1,0.813845886000308,4,1,0,0,0,0.813845886000308,0.5,0.866025403784439,1
4,198,0.65,3,8,2,2.25990269700014,2,54,12,1,0.36052102099984,1,2.25990269700014,1,0,1,0,0,NaN,NaN,NaN,1
4,91,1.4,1,6,2,2.73055605300033,2,19,11,1,1.28562456200052,1,2.73055605300033,1,0,1,0,0,NaN,NaN,NaN,1
4,147,0.65,1,8,2,1.73420123300002,2,3,16,2,0.650632058000156,1,1.73420123300002,2,0,1,0,0,NaN,NaN,NaN,1
4,241,1.4,1,10,1,1.35216632100037,2,25,11,2,0.197189618000266,0,NaN,NaN,0,0,1,0,NaN,NaN,NaN,1
4,11,0.65,1,4,1,1.05854655599978,1,11,4,3,0.423135342999558,1,1.05854655599978,3,1,0,0,0,1.05854655599978,-1.83697019872103e-16,-1,1
4,34,1.4,1,4,1,0.957136611000351,1,34,4,4,0.00675692000004346,1,0.957136611000351,4,1,0,0,0,0.957136611000351,-1.83697019872103e-16,-1,1
4,169,1.4,1,8,2,1.33856934699998,2,25,11,2,0.0580345859998488,1,1.33856934699998,2,0,1,0,0,NaN,NaN,NaN,1
4,257,0.65,3,10,1,0.757782776999193,1,41,7,3,0.204772769000556,1,0.757782776999193,3,1,0,0,0,0.757782776999193,-0.809016994374947,-0.587785252292473,1
4,148,0.65,1,8,2,1.82980778900037,2,4,16,2,1.94188525400023,1,1.82980778900037,2,0,1,0,0,NaN,NaN,NaN,1
4,228,0.65,1,10,1,1.70745010399969,1,12,10,2,0.274955646999842,1,1.70745010399969,2,1,0,0,0,1.70745010399969,0.809016994374947,-0.587785252292473,1
4,90,0.65,1,6,2,1.32617306700013,2,18,7,2,0.259534193999571,1,1.32617306700013,2,0,1,0,0,NaN,NaN,NaN,1
4,258,1.4,3,10,1,0.799070083000515,1,42,5,2,0.286152150999442,1,0.799070083000515,2,1,0,0,0,0.799070083000515,-0.809016994374947,0.587785252292473,1
4,29,1.4,1,4,NaN,4.00058826999975,2,29,5,2,2.56998180899973,0,NaN,NaN,0,0,0,0,NaN,NaN,NaN,1
4,97,1.4,1,6,2,1.45642708000014,2,25,9,3,0.0389082869996855,1,1.45642708000014,3,0,1,0,0,NaN,NaN,NaN,1
4,246,1.4,1,10,1,1.0528571900004,1,30,1,3,0.5838540499999,1,1.0528571900004,3,1,0,0,0,1.0528571900004,1,0,1
4,185,0.65,3,8,1,1.83362959799979,1,41,6,3,0.536593789000108,1,1.83362959799979,3,1,0,0,0,1.83362959799979,-0.707106781186548,-0.707106781186547,1
4,224,0.65,1,10,1,1.45896094100044,2,8,13,2,0.685168119999616,0,NaN,NaN,0,0,1,0,NaN,NaN,NaN,1
4,206,1.4,3,8,1,0.694150359999185,1,62,1,3,0.488075233000018,1,0.694150359999185,3,1,0,0,0,0.694150359999185,1,0,1
4,186,1.4,3,8,1,1.25736260699978,1,42,2,2,0.283731467000507,1,1.25736260699978,2,1,0,0,0,1.25736260699978,0.707106781186548,0.707106781186547,1
4,16,0.65,1,4,1,1.47838857700026,1,16,3,4,0.509775659999832,1,1.47838857700026,4,1,0,0,0,1.47838857700026,-1,1.22464679914735e-16,1
4,268,1.4,3,10,1,2.69276645399987,2,52,14,1,1.22487593499955,0,NaN,NaN,0,0,1,0,NaN,NaN,NaN,1
4,205,0.65,3,8,2,1.57260143199983,2,61,11,2,0.13111312700039,1,1.57260143199983,2,0,1,0,0,NaN,NaN,NaN,1
4,115,0.65,3,6,1,2.08832818300016,1,43,4,2,0.733366629000557,1,2.08832818300016,2,1,0,0,0,2.08832818300016,-1,1.22464679914735e-16,1
4,43,0.65,3,4,1,1.62672405599915,1,43,4,4,0.217411397000433,1,1.62672405599915,4,1,0,0,0,1.62672405599915,-1.83697019872103e-16,-1,1
4,154,0.65,1,8,2,1.30978822500037,2,10,12,2,0.530535753000549,1,1.30978822500037,2,0,1,0,0,NaN,NaN,NaN,1
4,94,1.4,1,6,1,1.01239745899966,1,22,4,4,0.0649058950002654,1,1.01239745899966,4,1,0,0,0,1.01239745899966,-1,1.22464679914735e-16,1
4,52,1.4,3,4,1,0.700871994999943,1,52,3,4,0.0541642429998319,1,0.700871994999943,4,1,0,0,0,0.700871994999943,-1,1.22464679914735e-16,1
4,236,1.4,1,10,2,1.37280532000023,2,20,11,2,0.559805390999827,1,1.37280532000023,2,0,1,0,0,NaN,NaN,NaN,1
4,238,1.4,1,10,1,1.57569869100007,2,22,16,2,0.214527758999793,0,NaN,NaN,0,0,1,0,NaN,NaN,NaN,1
4,17,0.65,1,4,2,0.934457764000399,2,17,6,3,0.19825528399997,1,0.934457764000399,3,0,1,0,0,NaN,NaN,NaN,1
4,125,0.65,3,6,1,0.753107290000116,2,53,7,3,0.540644998000062,0,NaN,NaN,0,0,1,0,NaN,NaN,NaN,1
4,191,0.65,3,8,2,1.42460907700024,2,47,16,2,0.647999243000413,1,1.42460907700024,2,0,1,0,0,NaN,NaN,NaN,1
4,273,1.4,3,10,1,0.909482289000152,1,57,4,3,0.902464434000649,1,0.909482289000152,3,1,0,0,0,0.909482289000152,-0.309016994374947,0.951056516295154,1
4,86,0.65,1,6,1,0.564887106000242,1,14,1,4,0.127961606000099,1,0.564887106000242,4,1,0,0,0,0.564887106000242,1,0,1
4,269,0.65,3,10,1,0.507263079999575,1,53,4,4,0.0335566829999152,1,0.507263079999575,4,1,0,0,0,0.507263079999575,-0.309016994374947,0.951056516295154,1
4,152,0.65,1,8,2,2.56219031899946,2,8,14,2,1.12629780299994,1,2.56219031899946,2,0,1,0,0,NaN,NaN,NaN,1
4,20,1.4,1,4,2,0.820399759999418,2,20,5,4,0.0866301930000191,1,0.820399759999418,4,0,1,0,0,NaN,NaN,NaN,1
4,255,0.65,3,10,1,1.61980623799991,1,39,3,1,0.162381205999736,1,1.61980623799991,1,1,0,0,0,1.61980623799991,0.309016994374947,0.951056516295154,1
4,233,0.65,1,10,2,1.05816058300024,2,17,11,2,0.574713674000122,1,1.05816058300024,2,0,1,0,0,NaN,NaN,NaN,1
4,197,0.65,3,8,1,0.644932648000577,1,53,8,4,0.0064086819993463,1,0.644932648000577,4,1,0,0,0,0.644932648000577,0.707106781186547,-0.707106781186548,1
4,227,0.65,1,10,1,2.56385372599925,1,11,7,2,1.09136763900005,1,2.56385372599925,2,1,0,0,0,2.56385372599925,-0.809016994374947,-0.587785252292473,1
4,102,1.4,1,6,1,1.04311375799989,1,30,5,3,0.235817150000003,1,1.04311375799989,3,1,0,0,0,1.04311375799989,-0.5,-0.866025403784438,1
4,153,0.65,1,8,2,1.20921171500049,2,9,9,2,0.328654367999661,1,1.20921171500049,2,0,1,0,0,NaN,NaN,NaN,1
4,225,0.65,1,10,1,0.562505529000191,1,9,7,4,0.0342570120001255,1,0.562505529000191,4,1,0,0,0,0.562505529000191,-0.809016994374947,-0.587785252292473,1
4,108,1.4,1,6,2,0.801715268000407,2,36,10,3,0.40922787099953,1,0.801715268000407,3,0,1,0,0,NaN,NaN,NaN,1
5,18,0.65,1,4,2,1.32170456200038,2,18,8,3,1.31279977000304,1,1.32170456200038,3,0,1,0,0,NaN,NaN,NaN,1
5,152,0.65,1,8,2,1.5695997599978,2,8,9,2,1.15679366100085,1,1.5695997599978,2,0,1,0,0,NaN,NaN,NaN,1
5,259,1.4,3,10,1,1.2284353660034,2,43,13,1,1.86472789099935,0,NaN,NaN,0,0,1,0,NaN,NaN,NaN,1
5,31,1.4,1,4,1,0.865517343998363,2,31,6,4,0.512278788999538,0,NaN,NaN,0,0,1,0,NaN,NaN,NaN,1
5,97,1.4,1,6,2,2.16412548800145,2,25,7,2,1.35270121300346,1,2.16412548800145,2,0,1,0,0,NaN,NaN,NaN,1
5,142,0.65,3,6,1,0.951447407998785,1,70,3,4,0.631895383001392,1,0.951447407998785,4,1,0,0,0,0.951447407998785,-0.5,0.866025403784439,1
5,101,1.4,1,6,2,2.38357844500206,2,29,9,3,1.08830537900212,1,2.38357844500206,3,0,1,0,0,NaN,NaN,NaN,1
5,100,1.4,1,6,1,1.36823342400021,1,28,5,3,1.79906494399984,1,1.36823342400021,3,1,0,0,0,1.36823342400021,-0.5,-0.866025403784438,1
5,93,1.4,1,6,2,1.33871004600223,1,21,1,2,1.9816714869994,0,NaN,NaN,0,0,0,1,NaN,1,0,1
